# ILS for spectrometer USB2E2559
# Wavelength (nm), Intensity
2.992426340857848004e+02 1.944475764307347860e-04
2.993257859643392180e+02 1.810896852981191420e-04
2.994089226856632422e+02 1.574533360531302272e-04
2.994920442497568160e+02 1.409980423594627875e-04
2.995751506566200533e+02 1.278944423843442776e-04
2.996582419062528402e+02 1.252938270681575126e-04
2.997413179986552336e+02 1.231387260726008728e-04
2.998243789338272336e+02 1.207027876777866268e-04
2.999074247117687833e+02 1.258219707949372772e-04
2.999904553324799963e+02 1.361268986232627742e-04
3.000734707959608158e+02 1.450934122723165475e-04
3.001564711022111851e+02 1.647182818142005876e-04
3.002394562512312177e+02 1.818649466230182589e-04
3.003224262430208569e+02 2.040970640396589189e-04
3.004053810775800457e+02 2.419437171408494688e-04
3.004883207549088411e+02 2.871223075637694354e-04
3.005712452750072430e+02 3.388370274907893031e-04
3.006541546378752514e+02 4.119675133945196132e-04
3.007370488435128095e+02 5.108280485656312890e-04
3.008199278919200310e+02 6.547062513017772555e-04
3.009027917830968022e+02 7.821958707495914234e-04
3.009856405170431799e+02 9.409697072423624893e-04
3.010684740937592210e+02 1.065329672280152179e-03
3.011512925132448117e+02 1.209042067277527315e-03
3.012340957755000090e+02 1.349341312936168944e-03
3.013168838805248129e+02 1.496689681129804300e-03
3.013996568283192232e+02 1.714239825023110807e-03
3.014824146188832401e+02 2.132013397931133234e-03
3.015651572522168067e+02 3.285443656174961459e-03
3.016478847283200366e+02 6.045453895503495254e-03
3.017305970471928163e+02 1.298667760428816494e-02
3.018132942088352024e+02 3.284541093847666293e-02
3.018959762132471951e+02 6.994739747032223398e-02
3.019786430604287943e+02 9.901694028426728800e-02
3.020612947503800001e+02 1.177764567217612218e-01
3.021439312831008124e+02 1.293941806936785288e-01
3.022265526585911743e+02 1.309147958049099447e-01
3.023091588768512565e+02 1.231411628643989814e-01
3.023917499378808316e+02 9.274389046786520041e-02
3.024743258416800131e+02 5.811916048920594269e-02
3.025568865882488581e+02 3.728067644623092591e-02
3.026394321775872527e+02 2.157146497409188207e-02
3.027219626096951970e+02 1.352854338809966230e-02
3.028044778845728047e+02 9.816211009856423003e-03
3.028869780022200189e+02 7.476109796820452381e-03
3.029694629626367828e+02 5.381634440487103981e-03
3.030519327658232100e+02 3.102589922545407469e-03
3.031343874117791870e+02 1.940814529883938934e-03
3.032168269005047705e+02 1.430220195685910026e-03
3.032992512319999605e+02 1.144767043446123745e-03
3.033816604062648139e+02 9.460687871687245131e-04
3.034640544232992170e+02 8.340926359915066743e-04
3.035464332831032266e+02 6.918223517361335234e-04
3.036287969856768427e+02 5.762174174965793705e-04
3.037111455310200085e+02 4.890729636722655847e-04
3.037934789191328377e+02 4.082806955944840452e-04
3.038757971500152166e+02 3.445143026045507126e-04
3.039581002236672020e+02 2.856698187104910630e-04
3.040403881400887940e+02 2.327656133915271446e-04
3.041226608992799925e+02 1.989380341119521530e-04
3.042049185012407975e+02 1.650571780389277596e-04
3.042871609459712090e+02 1.396526371886502155e-04
3.043693882334712271e+02 1.224864886143494128e-04
3.044516003637408517e+02 1.017933519453248454e-04
3.045337973367800259e+02 8.240407693037353574e-05
3.046159791525888068e+02 7.014778632271534604e-05
3.046981458111672509e+02 5.398558092386390988e-05
3.047802973125152448e+02 3.960624023395722525e-05
3.048624336566327884e+02 2.953795615326238583e-05
3.049445548435199953e+02 1.737946333732004006e-05
3.050266608731768088e+02 1.039955824521441831e-05
3.051087517456031719e+02 6.137026048496165968e-06
3.051908274607991984e+02 0.000000000000000000e+00
