******** O3 Absorption Cross Sections at 293K ******************

Version 3.0
Date: December 2004

K. Bogumil, J. Orphal, and J. P. Burrows
University of Bremen - Institute of Environmental Physics
P. O. Box 33 04 40
D-28334 Bremen, Germany
e-mail: K_Bogumil@web.de, Johannes.Orphal@ppm.u-psud.fr

1. column title:	wavelength (vacuum)
1. column unit:		nm
2. column title:	absorption cross-section 
2. column unit:		cm2/molec

Wavelength range:	230 - 1070 nm
Spectral Resolution:	0.32 nm below 311.0 nm, 0.21 nm between 311.0 nm and 406.7 nm, 0.52 nm
                        between 406.7 nm and 598.7 nm, 0.47 nm between 598.7 nm and 781.4 nm,
                        0.62 nm between 781.4 nm and 1056 nm, 1.45 nm above 1056 nm (FWHM)
Number of data points in file:	4244

Experimental:

Light source:   Xenon lamp, QTH lamp for 498.4 - 697.3 nm wavelength region
Cell:	        Multiple reflection quartz cell (White optics)
	        optical pathlength 505 cm and 985 cm
Temperature:    293K
Gas mixture:    O3, O2, N2
Condition:      Flow measurement
Total pressure: 50 - 900 mbar
Spectrometer:   SCIAMACHY PFM Satellite Spectrometer (Eight channel grating spectrometer)

Note: Spectral Regions are cutted and concatenated at 287.1 nm, 304.2 nm, 311.0 nm, 316.7 nm, 
      334.4 nm, 344.5 nm, 406.75 nm, 498.2 nm, 598.7 nm, 697.3 nm, 781.4 nm and 1056 nm.

Version history
Version 1.0 first published version
Version 2.0 correction for the memory effect in channel 1 (230 - 311 nm) applied 
Version 3.0 baseline correction for channel 1 revised, for T=293K there are no changes with respect to version 2.0  

  229.9956   4.51902E-18
  230.1306   4.46473E-18
  230.2656   4.52865E-18
  230.4004   4.62036E-18
  230.5352   4.69860E-18
  230.6699   4.72079E-18
  230.8045   4.70127E-18
  230.9390   4.77033E-18
  231.0735   4.85397E-18
  231.2078   4.92865E-18
  231.3421   4.93515E-18
  231.4763   4.98038E-18
  231.6105   5.06626E-18
  231.7445   5.04623E-18
  231.8785   5.14542E-18
  232.0124   5.14984E-18
  232.1462   5.19080E-18
  232.2800   5.25478E-18
  232.4136   5.33668E-18
  232.5472   5.37748E-18
  232.6807   5.41904E-18
  232.8141   5.49081E-18
  232.9475   5.54858E-18
  233.0807   5.56728E-18
  233.2139   5.62306E-18
  233.3470   5.70107E-18
  233.4800   5.70260E-18
  233.6129   5.73188E-18
  233.7458   5.78265E-18
  233.8786   5.84739E-18
  234.0113   5.88933E-18
  234.1439   5.95067E-18
  234.2765   5.98776E-18
  234.4089   6.05262E-18
  234.5413   6.13531E-18
  234.6736   6.19259E-18
  234.8058   6.25363E-18
  234.9380   6.29009E-18
  235.0700   6.31881E-18
  235.2020   6.35822E-18
  235.3339   6.36708E-18
  235.4657   6.41531E-18
  235.5975   6.47348E-18
  235.7292   6.52407E-18
  235.8607   6.60202E-18
  235.9922   6.64902E-18
  236.1237   6.73003E-18
  236.2550   6.79017E-18
  236.3863   6.82302E-18
  236.5175   6.85940E-18
  236.6486   6.90929E-18
  236.7796   6.94015E-18
  236.9106   6.98283E-18
  237.0415   7.05976E-18
  237.1722   7.10892E-18
  237.3030   7.15999E-18
  237.4336   7.20787E-18
  237.5642   7.24856E-18
  237.6946   7.29980E-18
  237.8250   7.34883E-18
  237.9554   7.40347E-18
  238.0856   7.45430E-18
  238.2158   7.51720E-18
  238.3458   7.57034E-18
  238.4759   7.60316E-18
  238.6058   7.65520E-18
  238.7356   7.69471E-18
  238.8654   7.72153E-18
  238.9951   7.76730E-18
  239.1247   7.79955E-18
  239.2542   7.86043E-18
  239.3837   7.93546E-18
  239.5131   8.01104E-18
  239.6424   8.09033E-18
  239.7716   8.15617E-18
  239.9007   8.22586E-18
  240.0298   8.26813E-18
  240.1588   8.29293E-18
  240.2877   8.30606E-18
  240.4165   8.31986E-18
  240.5453   8.35114E-18
  240.6740   8.38455E-18
  240.8026   8.44532E-18
  240.9311   8.48922E-18
  241.0596   8.55747E-18
  241.1879   8.60866E-18
  241.3162   8.66188E-18
  241.4444   8.72767E-18
  241.5726   8.78963E-18
  241.7006   8.84319E-18
  241.8286   8.87638E-18
  241.9565   8.90465E-18
  242.0844   8.92927E-18
  242.2121   8.96067E-18
  242.3398   9.00719E-18
  242.4674   9.03877E-18
  242.5949   9.07764E-18
  242.7224   9.11313E-18
  242.8497   9.15922E-18
  242.9770   9.21236E-18
  243.1043   9.27492E-18
  243.2314   9.33425E-18
  243.3585   9.39435E-18
  243.4855   9.44273E-18
  243.6124   9.50266E-18
  243.7392   9.55767E-18
  243.8660   9.60308E-18
  243.9927   9.64612E-18
  244.1193   9.65520E-18
  244.2459   9.66513E-18
  244.3723   9.67226E-18
  244.4987   9.68440E-18
  244.6250   9.69484E-18
  244.7513   9.70613E-18
  244.8775   9.73525E-18
  245.0036   9.79475E-18
  245.1296   9.88057E-18
  245.2555   9.97309E-18
  245.3814   1.00628E-17
  245.5072   1.01272E-17
  245.6329   1.01783E-17
  245.7586   1.02125E-17
  245.8842   1.02360E-17
  246.0097   1.02433E-17
  246.1351   1.02605E-17
  246.2605   1.02602E-17
  246.3857   1.02575E-17
  246.5109   1.02556E-17
  246.6361   1.02637E-17
  246.7612   1.02770E-17
  246.8862   1.03103E-17
  247.0111   1.03584E-17
  247.1359   1.04180E-17
  247.2607   1.04807E-17
  247.3854   1.05331E-17
  247.5100   1.05734E-17
  247.6346   1.06090E-17
  247.7591   1.06397E-17
  247.8835   1.06585E-17
  248.0079   1.06464E-17
  248.1321   1.06326E-17
  248.2563   1.06234E-17
  248.3805   1.06403E-17
  248.5045   1.06933E-17
  248.6285   1.07651E-17
  248.7524   1.08420E-17
  248.8763   1.09247E-17
  249.0001   1.09856E-17
  249.1238   1.10120E-17
  249.2474   1.10106E-17
  249.3710   1.10042E-17
  249.4945   1.10027E-17
  249.6179   1.10263E-17
  249.7413   1.10628E-17
  249.8646   1.10969E-17
  249.9878   1.11171E-17
  250.1110   1.11248E-17
  250.2341   1.11088E-17
  250.3571   1.10767E-17
  250.4800   1.10441E-17
  250.6029   1.10254E-17
  250.7257   1.10218E-17
  250.8485   1.10237E-17
  250.9711   1.10383E-17
  251.0937   1.10617E-17
  251.2163   1.10943E-17
  251.3387   1.11542E-17
  251.4612   1.12416E-17
  251.5835   1.13459E-17
  251.7058   1.14269E-17
  251.8280   1.14700E-17
  251.9501   1.14688E-17
  252.0722   1.14498E-17
  252.1942   1.14095E-17
  252.3161   1.13703E-17
  252.4380   1.13267E-17
  252.5598   1.12886E-17
  252.6815   1.12650E-17
  252.8032   1.12661E-17
  252.9248   1.12785E-17
  253.0464   1.12992E-17
  253.1678   1.13203E-17
  253.2893   1.13512E-17
  253.4106   1.13828E-17
  253.5319   1.14192E-17
  253.6531   1.14538E-17
  253.7743   1.14718E-17
  253.8954   1.14845E-17
  254.0164   1.14879E-17
  254.1373   1.14696E-17
  254.2582   1.14357E-17
  254.3791   1.13831E-17
  254.4999   1.13345E-17
  254.6206   1.13059E-17
  254.7412   1.13085E-17
  254.8618   1.13490E-17
  254.9823   1.14168E-17
  255.1028   1.15059E-17
  255.2232   1.15863E-17
  255.3435   1.16396E-17
  255.4638   1.16484E-17
  255.5840   1.16240E-17
  255.7042   1.15824E-17
  255.8242   1.15367E-17
  255.9443   1.14912E-17
  256.0642   1.14456E-17
  256.1841   1.13919E-17
  256.3040   1.13363E-17
  256.4238   1.12764E-17
  256.5435   1.12260E-17
  256.6632   1.11920E-17
  256.7828   1.11899E-17
  256.9023   1.12112E-17
  257.0218   1.12465E-17
  257.1412   1.12718E-17
  257.2606   1.12740E-17
  257.3799   1.12504E-17
  257.4992   1.12108E-17
  257.6183   1.11741E-17
  257.7375   1.11549E-17
  257.8566   1.11389E-17
  257.9756   1.11254E-17
  258.0945   1.11346E-17
  258.2134   1.11654E-17
  258.3323   1.12357E-17
  258.4511   1.13204E-17
  258.5698   1.14013E-17
  258.6885   1.14559E-17
  258.8071   1.14669E-17
  258.9256   1.14373E-17
  259.0441   1.13672E-17
  259.1626   1.12664E-17
  259.2810   1.11422E-17
  259.3993   1.10064E-17
  259.5176   1.08826E-17
  259.6358   1.07795E-17
  259.7540   1.07098E-17
  259.8721   1.06767E-17
  259.9901   1.06789E-17
  260.1082   1.07210E-17
  260.2261   1.07891E-17
  260.3440   1.08753E-17
  260.4618   1.09495E-17
  260.5796   1.10082E-17
  260.6974   1.10288E-17
  260.8150   1.10041E-17
  260.9327   1.09451E-17
  261.0502   1.08549E-17
  261.1678   1.07452E-17
  261.2852   1.06469E-17
  261.4026   1.05591E-17
  261.5200   1.04929E-17
  261.6373   1.04517E-17
  261.7546   1.04369E-17
  261.8718   1.04338E-17
  261.9889   1.04434E-17
  262.1060   1.04639E-17
  262.2231   1.04939E-17
  262.3401   1.05257E-17
  262.4571   1.05467E-17
  262.5740   1.05325E-17
  262.6908   1.04728E-17
  262.8076   1.03799E-17
  262.9244   1.02661E-17
  263.0411   1.01522E-17
  263.1577   1.00505E-17
  263.2743   9.97420E-18
  263.3909   9.91028E-18
  263.5074   9.86953E-18
  263.6238   9.84806E-18
  263.7402   9.85247E-18
  263.8566   9.87369E-18
  263.9729   9.90391E-18
  264.0892   9.93532E-18
  264.2054   9.95569E-18
  264.3216   9.97394E-18
  264.4377   9.97598E-18
  264.5538   9.96375E-18
  264.6698   9.91274E-18
  264.7858   9.82183E-18
  264.9017   9.70808E-18
  265.0176   9.60215E-18
  265.1334   9.52584E-18
  265.2492   9.50130E-18
  265.3650   9.51022E-18
  265.4807   9.52881E-18
  265.5963   9.52804E-18
  265.7120   9.51718E-18
  265.8275   9.49035E-18
  265.9431   9.44494E-18
  266.0585   9.37898E-18
  266.1740   9.30216E-18
  266.2894   9.23876E-18
  266.4047   9.19411E-18
  266.5200   9.14683E-18
  266.6353   9.08562E-18
  266.7505   9.00379E-18
  266.8657   8.90372E-18
  266.9808   8.80500E-18
  267.0959   8.72877E-18
  267.2110   8.70398E-18
  267.3260   8.72512E-18
  267.4409   8.77248E-18
  267.5558   8.81620E-18
  267.6707   8.82409E-18
  267.7856   8.79871E-18
  267.9004   8.74481E-18
  268.0151   8.68030E-18
  268.1298   8.60255E-18
  268.2445   8.51333E-18
  268.3592   8.42488E-18
  268.4738   8.33608E-18
  268.5883   8.25834E-18
  268.7028   8.19483E-18
  268.8173   8.14275E-18
  268.9317   8.08351E-18
  269.0461   8.01571E-18
  269.1605   7.96960E-18
  269.2748   7.94391E-18
  269.3891   7.95881E-18
  269.5034   8.00059E-18
  269.6176   8.04445E-18
  269.7317   8.06188E-18
  269.8459   8.03451E-18
  269.9600   7.97701E-18
  270.0740   7.89971E-18
  270.1880   7.81337E-18
  270.3020   7.73144E-18
  270.4160   7.65617E-18
  270.5299   7.58148E-18
  270.6437   7.50977E-18
  270.7576   7.44250E-18
  270.8714   7.38913E-18
  270.9851   7.35018E-18
  271.0989   7.31364E-18
  271.2126   7.27212E-18
  271.3262   7.23137E-18
  271.4399   7.19300E-18
  271.5535   7.16867E-18
  271.6670   7.15501E-18
  271.7805   7.14372E-18
  271.8940   7.12265E-18
  272.0075   7.08827E-18
  272.1209   7.03293E-18
  272.2343   6.95769E-18
  272.3476   6.89123E-18
  272.4610   6.84195E-18
  272.5743   6.79657E-18
  272.6875   6.75043E-18
  272.8007   6.69360E-18
  272.9139   6.64311E-18
  273.0271   6.60607E-18
  273.1402   6.57913E-18
  273.2533   6.54544E-18
  273.3664   6.49325E-18
  273.4794   6.43130E-18
  273.5924   6.36227E-18
  273.7054   6.29427E-18
  273.8183   6.22298E-18
  273.9313   6.16093E-18
  274.0441   6.09002E-18
  274.1570   6.01695E-18
  274.2698   5.94895E-18
  274.3826   5.90146E-18
  274.4954   5.88392E-18
  274.6081   5.88268E-18
  274.7208   5.88767E-18
  274.8335   5.88390E-18
  274.9461   5.85879E-18
  275.0588   5.81894E-18
  275.1713   5.77004E-18
  275.2839   5.70853E-18
  275.3964   5.65378E-18
  275.5090   5.59149E-18
  275.6214   5.53360E-18
  275.7339   5.47606E-18
  275.8463   5.41914E-18
  275.9587   5.38046E-18
  276.0711   5.35731E-18
  276.1834   5.34231E-18
  276.2958   5.31621E-18
  276.4081   5.26639E-18
  276.5203   5.20792E-18
  276.6326   5.15315E-18
  276.7448   5.11325E-18
  276.8570   5.08058E-18
  276.9691   5.03867E-18
  277.0813   5.00850E-18
  277.1934   4.98892E-18
  277.3055   4.96347E-18
  277.4176   4.93493E-18
  277.5296   4.89158E-18
  277.6416   4.83868E-18
  277.7536   4.77923E-18
  277.8656   4.71861E-18
  277.9776   4.66613E-18
  278.0895   4.61798E-18
  278.2014   4.57930E-18
  278.3133   4.54464E-18
  278.4251   4.50952E-18
  278.5370   4.47340E-18
  278.6488   4.43288E-18
  278.7606   4.39646E-18
  278.8723   4.35280E-18
  278.9841   4.30237E-18
  279.0958   4.24693E-18
  279.2075   4.20105E-18
  279.3192   4.16319E-18
  279.4309   4.13419E-18
  279.5425   4.11661E-18
  279.6541   4.09554E-18
  279.7657   4.07299E-18
  279.8773   4.04978E-18
  279.9889   4.00874E-18
  280.1004   3.94898E-18
  280.2119   3.88254E-18
  280.3234   3.82134E-18
  280.4349   3.76622E-18
  280.5464   3.72351E-18
  280.6578   3.68757E-18
  280.7692   3.66021E-18
  280.8807   3.64227E-18
  280.9920   3.62192E-18
  281.1034   3.59476E-18
  281.2148   3.55483E-18
  281.3261   3.49557E-18
  281.4374   3.43617E-18
  281.5487   3.37808E-18
  281.6600   3.32345E-18
  281.7712   3.27633E-18
  281.8825   3.23831E-18
  281.9937   3.21057E-18
  282.1049   3.19822E-18
  282.2161   3.18192E-18
  282.3273   3.16890E-18
  282.4385   3.14111E-18
  282.5496   3.09888E-18
  282.6607   3.06467E-18
  282.7718   3.02876E-18
  282.8829   3.00099E-18
  282.9940   2.97893E-18
  283.1051   2.97549E-18
  283.2161   2.97145E-18
  283.3272   2.97410E-18
  283.4382   2.96480E-18
  283.5492   2.93517E-18
  283.6602   2.88493E-18
  283.7712   2.83554E-18
  283.8821   2.78070E-18
  283.9931   2.72606E-18
  284.1040   2.68008E-18
  284.2149   2.64638E-18
  284.3259   2.62000E-18
  284.4367   2.59638E-18
  284.5476   2.57219E-18
  284.6585   2.54466E-18
  284.7693   2.52309E-18
  284.8802   2.49882E-18
  284.9910   2.47248E-18
  285.1018   2.42823E-18
  285.2126   2.38836E-18
  285.3234   2.35498E-18
  285.4342   2.32371E-18
  285.5450   2.29809E-18
  285.6557   2.27328E-18
  285.7665   2.26562E-18
  285.8772   2.24937E-18
  285.9879   2.23509E-18
  286.0986   2.21325E-18
  286.2093   2.18917E-18
  286.3200   2.16108E-18
  286.4307   2.12931E-18
  286.5413   2.10715E-18
  286.6520   2.07917E-18
  286.7626   2.05237E-18
  286.8733   2.02828E-18
  286.9839   2.01456E-18
  287.0945   1.99882E-18
  287.2051   1.98256E-18
  287.3157   1.96190E-18
  287.4263   1.93496E-18
  287.5369   1.90173E-18
  287.6474   1.86476E-18
  287.7580   1.82848E-18
  287.8685   1.79509E-18
  287.9791   1.76516E-18
  288.0896   1.73994E-18
  288.2001   1.71774E-18
  288.3106   1.69749E-18
  288.4211   1.67954E-18
  288.5316   1.66353E-18
  288.6421   1.64718E-18
  288.7526   1.62906E-18
  288.8630   1.60922E-18
  288.9735   1.58836E-18
  289.0839   1.56801E-18
  289.1944   1.54887E-18
  289.3048   1.52954E-18
  289.4152   1.50915E-18
  289.5257   1.48749E-18
  289.6361   1.46550E-18
  289.7465   1.44571E-18
  289.8569   1.42991E-18
  289.9673   1.41612E-18
  290.0777   1.40187E-18
  290.1880   1.38567E-18
  290.2984   1.36923E-18
  290.4088   1.35461E-18
  290.5191   1.34151E-18
  290.6295   1.32774E-18
  290.7398   1.31303E-18
  290.8502   1.29658E-18
  290.9605   1.27939E-18
  291.0708   1.26128E-18
  291.1811   1.24270E-18
  291.2915   1.22424E-18
  291.4018   1.20468E-18
  291.5121   1.18342E-18
  291.6224   1.16120E-18
  291.7327   1.13997E-18
  291.8429   1.12302E-18
  291.9532   1.10864E-18
  292.0635   1.09483E-18
  292.1738   1.08043E-18
  292.2840   1.06731E-18
  292.3943   1.05697E-18
  292.5046   1.04844E-18
  292.6148   1.04097E-18
  292.7251   1.03171E-18
  292.8353   1.01986E-18
  292.9455   1.00544E-18
  293.0558   9.89322E-19
  293.1660   9.73261E-19
  293.2762   9.57286E-19
  293.3864   9.41447E-19
  293.4967   9.24801E-19
  293.6069   9.07900E-19
  293.7171   8.92528E-19
  293.8273   8.78751E-19
  293.9375   8.67393E-19
  294.0477   8.58786E-19
  294.1579   8.51707E-19
  294.2681   8.43438E-19
  294.3782   8.33196E-19
  294.4884   8.23052E-19
  294.5986   8.14115E-19
  294.7088   8.03918E-19
  294.8189   7.93128E-19
  294.9291   7.82623E-19
  295.0393   7.71048E-19
  295.1494   7.58178E-19
  295.2596   7.44087E-19
  295.3698   7.30225E-19
  295.4799   7.16553E-19
  295.5901   7.04819E-19
  295.7002   6.95759E-19
  295.8103   6.87549E-19
  295.9205   6.78837E-19
  296.0306   6.68729E-19
  296.1408   6.55980E-19
  296.2509   6.42841E-19
  296.3610   6.32093E-19
  296.4711   6.24529E-19
  296.5813   6.19497E-19
  296.6914   6.15811E-19
  296.8015   6.10663E-19
  296.9116   6.02985E-19
  297.0217   5.92648E-19
  297.1318   5.81127E-19
  297.2420   5.70196E-19
  297.3521   5.61179E-19
  297.4622   5.51920E-19
  297.5723   5.42396E-19
  297.6824   5.33340E-19
  297.7925   5.24752E-19
  297.9026   5.16592E-19
  298.0126   5.08560E-19
  298.1227   5.01094E-19
  298.2328   4.94666E-19
  298.3429   4.88945E-19
  298.4530   4.82310E-19
  298.5631   4.76213E-19
  298.6732   4.71448E-19
  298.7832   4.66795E-19
  298.8933   4.62227E-19
  299.0034   4.56223E-19
  299.1135   4.48199E-19
  299.2235   4.39768E-19
  299.3336   4.30940E-19
  299.4437   4.22701E-19
  299.5537   4.14862E-19
  299.6638   4.07443E-19
  299.7738   4.01078E-19
  299.8839   3.96443E-19
  299.9939   3.92517E-19
  300.1040   3.88468E-19
  300.2140   3.83258E-19
  300.3241   3.78223E-19
  300.4341   3.73296E-19
  300.5442   3.68986E-19
  300.6542   3.64321E-19
  300.7643   3.59006E-19
  300.8743   3.52767E-19
  300.9843   3.45805E-19
  301.0944   3.38696E-19
  301.2044   3.31815E-19
  301.3144   3.25499E-19
  301.4244   3.20195E-19
  301.5345   3.15668E-19
  301.6445   3.11814E-19
  301.7545   3.08870E-19
  301.8645   3.06335E-19
  301.9745   3.03776E-19
  302.0845   3.00575E-19
  302.1945   2.96746E-19
  302.3045   2.92871E-19
  302.4145   2.88401E-19
  302.5245   2.83748E-19
  302.6345   2.78321E-19
  302.7445   2.73278E-19
  302.8545   2.67359E-19
  302.9645   2.62330E-19
  303.0745   2.57267E-19
  303.1845   2.52873E-19
  303.2945   2.48728E-19
  303.4044   2.45294E-19
  303.5144   2.42423E-19
  303.6244   2.39712E-19
  303.7343   2.37121E-19
  303.8443   2.35302E-19
  303.9543   2.34134E-19
  304.0642   2.32867E-19
  304.1742   2.30028E-19
  304.2841   2.26470E-19
  304.3941   2.22871E-19
  304.5040   2.19447E-19
  304.6140   2.15717E-19
  304.7239   2.11207E-19
  304.8338   2.06448E-19
  304.9438   2.01924E-19
  305.0537   1.97584E-19
  305.1636   1.93517E-19
  305.2735   1.89695E-19
  305.3834   1.86361E-19
  305.4933   1.83786E-19
  305.6032   1.81985E-19
  305.7131   1.80887E-19
  305.8230   1.79483E-19
  305.9329   1.77537E-19
  306.0428   1.75478E-19
  306.1527   1.74130E-19
  306.2625   1.73407E-19
  306.3724   1.72077E-19
  306.4823   1.69656E-19
  306.5921   1.66531E-19
  306.7020   1.63497E-19
  306.8118   1.60834E-19
  306.9217   1.57902E-19
  307.0315   1.54350E-19
  307.1413   1.50376E-19
  307.2511   1.46636E-19
  307.3610   1.43534E-19
  307.4708   1.40727E-19
  307.5806   1.38337E-19
  307.6904   1.36336E-19
  307.8002   1.35049E-19
  307.9099   1.34487E-19
  308.0197   1.33738E-19
  308.1295   1.33008E-19
  308.2393   1.31956E-19
  308.3490   1.30019E-19
  308.4588   1.27495E-19
  308.5685   1.25921E-19
  308.6782   1.25634E-19
  308.7880   1.25202E-19
  308.8977   1.24141E-19
  309.0074   1.22629E-19
  309.1171   1.21180E-19
  309.2268   1.18861E-19
  309.3365   1.16033E-19
  309.4461   1.12329E-19
  309.5558   1.08299E-19
  309.6655   1.05201E-19
  309.7751   1.03243E-19
  309.8848   1.02034E-19
  309.9944   1.01053E-19
  310.1040   1.00323E-19
  310.2136   1.00206E-19
  310.3232   1.00152E-19
  310.4328   9.87726E-20
  310.5424   9.65146E-20
  310.6520   9.45292E-20
  310.7615   9.34639E-20
  310.8711   9.24767E-20
  310.9806   9.14088E-20
  311.0257   9.09461E-20
  311.1406   9.02432E-20
  311.2555   8.99454E-20
  311.3704   9.00009E-20
  311.4852   8.91637E-20
  311.6001   8.74417E-20
  311.7149   8.50480E-20
  311.8297   8.26089E-20
  311.9444   8.02362E-20
  312.0592   7.83211E-20
  312.1739   7.66753E-20
  312.2886   7.53985E-20
  312.4033   7.38963E-20
  312.5180   7.23892E-20
  312.6326   7.08980E-20
  312.7472   6.97772E-20
  312.8619   6.87541E-20
  312.9764   6.80787E-20
  313.0910   6.72803E-20
  313.2055   6.67189E-20
  313.3201   6.69335E-20
  313.4346   6.78949E-20
  313.5491   6.85265E-20
  313.6635   6.82173E-20
  313.7780   6.69477E-20
  313.8924   6.53276E-20
  314.0068   6.35422E-20
  314.1211   6.16358E-20
  314.2355   5.95302E-20
  314.3498   5.74606E-20
  314.4641   5.53868E-20
  314.5784   5.36374E-20
  314.6927   5.23917E-20
  314.8069   5.18393E-20
  314.9212   5.14734E-20
  315.0354   5.09085E-20
  315.1496   5.02111E-20
  315.2637   5.00206E-20
  315.3779   5.07703E-20
  315.4920   5.23179E-20
  315.6061   5.31684E-20
  315.7202   5.25684E-20
  315.8342   5.08518E-20
  315.9482   4.87662E-20
  316.0622   4.67431E-20
  316.1762   4.52206E-20
  316.2902   4.41049E-20
  316.4041   4.30904E-20
  316.5181   4.19446E-20
  316.6320   4.06704E-20
  316.7458   3.94546E-20
  316.8597   3.91349E-20
  316.9735   3.95392E-20
  317.0873   4.03297E-20
  317.2011   4.02552E-20
  317.3149   3.96600E-20
  317.4286   3.91100E-20
  317.5424   3.98124E-20
  317.6561   4.06682E-20
  317.7697   4.04775E-20
  317.8834   3.88884E-20
  317.9970   3.74382E-20
  318.1106   3.62883E-20
  318.2242   3.52061E-20
  318.3378   3.35420E-20
  318.4513   3.19430E-20
  318.5649   3.05719E-20
  318.6784   2.97099E-20
  318.7918   2.88958E-20
  318.9053   2.81223E-20
  319.0187   2.72409E-20
  319.1321   2.67338E-20
  319.2455   2.69894E-20
  319.3589   2.84454E-20
  319.4722   3.01521E-20
  319.5855   3.09129E-20
  319.6988   3.03802E-20
  319.8121   2.97989E-20
  319.9253   3.01102E-20
  320.0386   3.10434E-20
  320.1518   3.07272E-20
  320.2650   2.92554E-20
  320.3781   2.73412E-20
  320.4912   2.58472E-20
  320.6044   2.47271E-20
  320.7174   2.36472E-20
  320.8305   2.22726E-20
  320.9436   2.09697E-20
  321.0566   1.98695E-20
  321.1696   1.92434E-20
  321.2825   1.89536E-20
  321.3955   1.89247E-20
  321.5084   1.87810E-20
  321.6213   1.85336E-20
  321.7342   1.84459E-20
  321.8471   1.92532E-20
  321.9599   2.11940E-20
  322.0727   2.32203E-20
  322.1855   2.36800E-20
  322.2983   2.29153E-20
  322.4110   2.18690E-20
  322.5237   2.17139E-20
  322.6364   2.25254E-20
  322.7491   2.29771E-20
  322.8618   2.20994E-20
  322.9744   2.06472E-20
  323.0870   1.90415E-20
  323.1996   1.75687E-20
  323.3121   1.62362E-20
  323.4247   1.51200E-20
  323.5372   1.41151E-20
  323.6497   1.32413E-20
  323.7621   1.24986E-20
  323.8746   1.20309E-20
  323.9870   1.18922E-20
  324.0994   1.22278E-20
  324.2118   1.26921E-20
  324.3241   1.29276E-20
  324.4365   1.28630E-20
  324.5488   1.28939E-20
  324.6610   1.35346E-20
  324.7733   1.53195E-20
  324.8855   1.70625E-20
  324.9978   1.73760E-20
  325.1099   1.65361E-20
  325.2221   1.54402E-20
  325.3343   1.45860E-20
  325.4464   1.44509E-20
  325.5585   1.45725E-20
  325.6705   1.42021E-20
  325.7826   1.33117E-20
  325.8946   1.23385E-20
  326.0066   1.14156E-20
  326.1186   1.06603E-20
  326.2306   1.00015E-20
  326.3425   9.45345E-21
  326.4544   8.95138E-21
  326.5663   8.50584E-21
  326.6782   8.10355E-21
  326.7900   7.82984E-21
  326.9018   7.74506E-21
  327.0136   8.09801E-21
  327.1254   8.78263E-21
  327.2372   9.30836E-21
  327.3489   9.35615E-21
  327.4606   9.10814E-21
  327.5723   8.88254E-21
  327.6840   9.21745E-21
  327.7956   1.04278E-20
  327.9072   1.18984E-20
  328.0188   1.25433E-20
  328.1304   1.22503E-20
  328.2419   1.14551E-20
  328.3534   1.06169E-20
  328.4649   9.82853E-21
  328.5764   9.08979E-21
  328.6879   8.31814E-21
  328.7993   7.60079E-21
  328.9107   6.96542E-21
  329.0221   6.48084E-21
  329.1335   6.05736E-21
  329.2448   5.68276E-21
  329.3561   5.33526E-21
  329.4674   5.10478E-21
  329.5787   4.99302E-21
  329.6900   4.93626E-21
  329.8012   4.83033E-21
  329.9124   4.71432E-21
  330.0236   4.71434E-21
  330.1348   5.07836E-21
  330.2459   5.92667E-21
  330.3570   6.82130E-21
  330.4681   7.15387E-21
  330.5792   7.01883E-21
  330.6902   6.69463E-21
  330.8013   6.48135E-21
  330.9123   6.72118E-21
  331.0232   7.54935E-21
  331.1342   8.14088E-21
  331.2451   8.04202E-21
  331.3561   7.51099E-21
  331.4670   6.88199E-21
  331.5778   6.28231E-21
  331.6887   5.78997E-21
  331.7995   5.31628E-21
  331.9103   4.84313E-21
  332.0211   4.39715E-21
  332.1319   4.01004E-21
  332.2426   3.68831E-21
  332.3533   3.45157E-21
  332.4640   3.24945E-21
  332.5747   3.10641E-21
  332.6853   3.00762E-21
  332.7960   3.00446E-21
  332.9066   3.12114E-21
  333.0172   3.29982E-21
  333.1277   3.49119E-21
  333.2383   3.65340E-21
  333.3488   3.71660E-21
  333.4593   3.88204E-21
  333.5698   4.42078E-21
  333.6802   5.18315E-21
  333.7907   5.63116E-21
  333.9011   5.69778E-21
  334.0115   5.45556E-21
  334.1219   5.04805E-21
  334.2322   4.58560E-21
  334.3425   4.15660E-21
  334.4529   3.73524E-21
  334.5631   3.49693E-21
  334.6734   3.26913E-21
  334.7836   3.03330E-21
  334.8939   2.77304E-21
  335.0041   2.53410E-21
  335.1143   2.30387E-21
  335.2244   2.12217E-21
  335.3346   1.97575E-21
  335.4447   1.90313E-21
  335.5548   1.86537E-21
  335.6648   1.84518E-21
  335.7749   1.79878E-21
  335.8849   1.75023E-21
  335.9949   1.72085E-21
  336.1049   1.79734E-21
  336.2149   1.98675E-21
  336.3249   2.24305E-21
  336.4348   2.46914E-21
  336.5447   2.58679E-21
  336.6546   2.55093E-21
  336.7645   2.49764E-21
  336.8743   2.51324E-21
  336.9841   2.66275E-21
  337.0940   2.97933E-21
  337.2037   3.44383E-21
  337.3135   3.64956E-21
  337.4233   3.56618E-21
  337.5330   3.32495E-21
  337.6427   3.07494E-21
  337.7524   2.79684E-21
  337.8620   2.54194E-21
  337.9717   2.29005E-21
  338.0813   2.06845E-21
  338.1909   1.85958E-21
  338.3005   1.68576E-21
  338.4101   1.52918E-21
  338.5196   1.42610E-21
  338.6292   1.35977E-21
  338.7387   1.34131E-21
  338.8482   1.31960E-21
  338.9576   1.30426E-21
  339.0671   1.26881E-21
  339.1765   1.24987E-21
  339.2859   1.28524E-21
  339.3953   1.40602E-21
  339.5047   1.51498E-21
  339.6140   1.55524E-21
  339.7234   1.52854E-21
  339.8327   1.51348E-21
  339.9420   1.57675E-21
  340.0512   1.79586E-21
  340.1605   2.02105E-21
  340.2697   2.09454E-21
  340.3790   2.01578E-21
  340.4882   1.87972E-21
  340.5973   1.70767E-21
  340.7065   1.54586E-21
  340.8156   1.38527E-21
  340.9248   1.25494E-21
  341.0339   1.13126E-21
  341.1430   1.03010E-21
  341.2520   9.37308E-22
  341.3611   8.68481E-22
  341.4701   8.01409E-22
  341.5791   7.53124E-22
  341.6881   7.12862E-22
  341.7971   6.94980E-22
  341.9061   6.89894E-22
  342.0150   7.22869E-22
  342.1239   7.55049E-22
  342.2328   7.57188E-22
  342.3417   7.25575E-22
  342.4506   6.94184E-22
  342.5594   6.70010E-22
  342.6683   6.77389E-22
  342.7771   7.26993E-22
  342.8859   8.18872E-22
  342.9947   8.73224E-22
  343.1034   9.06893E-22
  343.2122   9.23843E-22
  343.3209   9.15970E-22
  343.4296   8.80901E-22
  343.5383   8.61054E-22
  343.6470   8.60933E-22
  343.7556   9.11796E-22
  343.8643   1.05838E-21
  343.9729   1.25231E-21
  344.0815   1.32060E-21
  344.1901   1.28537E-21
  344.2987   1.19162E-21
  344.4072   1.09224E-21
  344.5158   1.00254E-21
  344.6243   9.18022E-22
  344.7328   8.45211E-22
  344.8413   7.92475E-22
  344.9498   7.47072E-22
  345.0582   7.01770E-22
  345.1666   6.55542E-22
  345.2751   6.26580E-22
  345.3835   6.11957E-22
  345.4919   6.16532E-22
  345.6002   6.51226E-22
  345.7086   6.96559E-22
  345.8169   7.03755E-22
  345.9253   6.75966E-22
  346.0336   6.30489E-22
  346.1419   5.88452E-22
  346.2501   5.56523E-22
  346.3584   5.41913E-22
  346.4666   5.31452E-22
  346.5749   5.13384E-22
  346.6831   4.88289E-22
  346.7913   4.64627E-22
  346.8995   4.46091E-22
  347.0076   4.46262E-22
  347.1158   4.80489E-22
  347.2239   5.29596E-22
  347.3320   5.43169E-22
  347.4401   5.27317E-22
  347.5482   4.97083E-22
  347.6563   4.62293E-22
  347.7644   4.26518E-22
  347.8724   3.93208E-22
  347.9805   3.63826E-22
  348.0885   3.40817E-22
  348.1965   3.19303E-22
  348.3045   3.00002E-22
  348.4124   2.85710E-22
  348.5204   2.81507E-22
  348.6283   2.87092E-22
  348.7363   2.94509E-22
  348.8442   2.92394E-22
  348.9521   2.83762E-22
  349.0599   2.71840E-22
  349.1678   2.63760E-22
  349.2757   2.69142E-22
  349.3835   3.04159E-22
  349.4913   3.53855E-22
  349.5992   3.79118E-22
  349.7070   3.73796E-22
  349.8147   3.55991E-22
  349.9225   3.33925E-22
  350.0303   3.16274E-22
  350.1380   3.09402E-22
  350.2458   3.10419E-22
  350.3535   3.04567E-22
  350.4612   2.92279E-22
  350.5689   2.78242E-22
  350.6765   2.65474E-22
  350.7842   2.53823E-22
  350.8919   2.44836E-22
  350.9995   2.40183E-22
  351.1071   2.48756E-22
  351.2147   2.79243E-22
  351.3223   3.39114E-22
  351.4299   3.93818E-22
  351.5375   4.13444E-22
  351.6451   4.06357E-22
  351.7526   3.87693E-22
  351.8601   3.62427E-22
  351.9677   3.36561E-22
  352.0752   3.11924E-22
  352.1827   2.91907E-22
  352.2901   2.78189E-22
  352.3976   2.75047E-22
  352.5051   2.83670E-22
  352.6125   2.94852E-22
  352.7200   2.93742E-22
  352.8274   2.80270E-22
  352.9348   2.60955E-22
  353.0422   2.41612E-22
  353.1496   2.24697E-22
  353.2570   2.14367E-22
  353.3643   2.09106E-22
  353.4717   2.01698E-22
  353.5790   1.89867E-22
  353.6864   1.76745E-22
  353.7937   1.63513E-22
  353.9010   1.51415E-22
  354.0083   1.40238E-22
  354.1156   1.31162E-22
  354.2228   1.23786E-22
  354.3301   1.19131E-22
  354.4374   1.16487E-22
  354.5446   1.13861E-22
  354.6518   1.11242E-22
  354.7591   1.10569E-22
  354.8663   1.12484E-22
  354.9735   1.16079E-22
  355.0806   1.18642E-22
  355.1878   1.20130E-22
  355.2950   1.19504E-22
  355.4021   1.15763E-22
  355.5093   1.09717E-22
  355.6164   1.03869E-22
  355.7236   9.94039E-23
  355.8307   9.89221E-23
  355.9378   1.00770E-22
  356.0449   1.00503E-22
  356.1520   9.73924E-23
  356.2590   9.37824E-23
  356.3661   9.11417E-23
  356.4731   9.21357E-23
  356.5802   1.02264E-22
  356.6872   1.24255E-22
  356.7943   1.43687E-22
  356.9013   1.49560E-22
  357.0083   1.46023E-22
  357.1153   1.39118E-22
  357.2223   1.31691E-22
  357.3292   1.26478E-22
  357.4362   1.26515E-22
  357.5432   1.28448E-22
  357.6501   1.26039E-22
  357.7571   1.19984E-22
  357.8640   1.13525E-22
  357.9709   1.07977E-22
  358.0778   1.03809E-22
  358.1848   1.00565E-22
  358.2917   9.73709E-23
  358.3985   9.31670E-23
  358.5054   8.75351E-23
  358.6123   8.21498E-23
  358.7192   7.80783E-23
  358.8260   7.59194E-23
  358.9329   7.59881E-23
  359.0397   7.67291E-23
  359.1465   7.75584E-23
  359.2534   8.11055E-23
  359.3602   8.80759E-23
  359.4670   9.48306E-23
  359.5738   9.73333E-23
  359.6806   9.60244E-23
  359.7874   9.23722E-23
  359.8942   8.84957E-23
  360.0009   8.59523E-23
  360.1077   8.71208E-23
  360.2144   9.11275E-23
  360.3212   9.27235E-23
  360.4279   9.00081E-23
  360.5347   8.52971E-23
  360.6414   7.97990E-23
  360.7481   7.46361E-23
  360.8548   7.07126E-23
  360.9615   6.86427E-23
  361.0682   6.71438E-23
  361.1749   6.46666E-23
  361.2816   6.16664E-23
  361.3883   5.85946E-23
  361.4950   5.56053E-23
  361.6016   5.22812E-23
  361.7083   4.89502E-23
  361.8149   4.58054E-23
  361.9216   4.31741E-23
  362.0282   4.12308E-23
  362.1348   4.03502E-23
  362.2415   4.07741E-23
  362.3481   4.17343E-23
  362.4547   4.15542E-23
  362.5613   4.01643E-23
  362.6679   3.83688E-23
  362.7745   3.66861E-23
  362.8811   3.56114E-23
  362.9877   3.55615E-23
  363.0943   3.58046E-23
  363.2008   3.53199E-23
  363.3074   3.44542E-23
  363.4140   3.34752E-23
  363.5205   3.24747E-23
  363.6271   3.14591E-23
  363.7336   3.04849E-23
  363.8402   2.98295E-23
  363.9467   2.93740E-23
  364.0532   2.89433E-23
  364.1597   2.86120E-23
  364.2663   2.85459E-23
  364.3728   2.91640E-23
  364.4793   3.11278E-23
  364.5858   3.61947E-23
  364.6923   4.39505E-23
  364.7988   4.99119E-23
  364.9053   5.17394E-23
  365.0118   5.09859E-23
  365.1183   4.89133E-23
  365.2247   4.67328E-23
  365.3312   4.53764E-23
  365.4377   4.58639E-23
  365.5441   4.80559E-23
  365.6506   4.97959E-23
  365.7571   4.98839E-23
  365.8635   4.81214E-23
  365.9700   4.56563E-23
  366.0764   4.29320E-23
  366.1828   4.04411E-23
  366.2893   3.83936E-23
  366.3957   3.69815E-23
  366.5021   3.56799E-23
  366.6086   3.41390E-23
  366.7150   3.25685E-23
  366.8214   3.07593E-23
  366.9278   2.90849E-23
  367.0342   2.73892E-23
  367.1406   2.60410E-23
  367.2470   2.48419E-23
  367.3534   2.36650E-23
  367.4598   2.26074E-23
  367.5662   2.17918E-23
  367.6726   2.11197E-23
  367.7790   2.06648E-23
  367.8854   2.02894E-23
  367.9918   2.02201E-23
  368.0982   2.03848E-23
  368.2045   2.07668E-23
  368.3109   2.17420E-23
  368.4173   2.27307E-23
  368.5236   2.37363E-23
  368.6300   2.44305E-23
  368.7364   2.46118E-23
  368.8427   2.44078E-23
  368.9491   2.38431E-23
  369.0554   2.31513E-23
  369.1618   2.26110E-23
  369.2681   2.22311E-23
  369.3745   2.18718E-23
  369.4808   2.14430E-23
  369.5872   2.09078E-23
  369.6935   2.04188E-23
  369.7999   1.99971E-23
  369.9062   1.98914E-23
  370.0125   2.02357E-23
  370.1189   2.12320E-23
  370.2252   2.19623E-23
  370.3315   2.16978E-23
  370.4379   2.11536E-23
  370.5442   2.06120E-23
  370.6505   2.01116E-23
  370.7569   1.99886E-23
  370.8632   2.02792E-23
  370.9695   2.04196E-23
  371.0758   2.00393E-23
  371.1821   1.94505E-23
  371.2885   1.89033E-23
  371.3948   1.82710E-23
  371.5011   1.76903E-23
  371.6074   1.71112E-23
  371.7137   1.64528E-23
  371.8200   1.57672E-23
  371.9263   1.54491E-23
  372.0326   1.52147E-23
  372.1390   1.48778E-23
  372.2453   1.46081E-23
  372.3516   1.43673E-23
  372.4579   1.40393E-23
  372.5642   1.37433E-23
  372.6705   1.35703E-23
  372.7768   1.33619E-23
  372.8831   1.33536E-23
  372.9894   1.33966E-23
  373.0957   1.39064E-23
  373.2020   1.45951E-23
  373.3083   1.57012E-23
  373.4146   1.69184E-23
  373.5209   1.78932E-23
  373.6272   1.82280E-23
  373.7335   1.84121E-23
  373.8398   1.86777E-23
  373.9461   1.89759E-23
  374.0524   1.92315E-23
  374.1587   1.93237E-23
  374.2650   1.94746E-23
  374.3713   1.95263E-23
  374.4776   1.93087E-23
  374.5839   1.90673E-23
  374.6902   1.88587E-23
  374.7965   1.84707E-23
  374.9028   1.80014E-23
  375.0091   1.75430E-23
  375.1154   1.69347E-23
  375.2217   1.64125E-23
  375.3280   1.59140E-23
  375.4343   1.53951E-23
  375.5406   1.49602E-23
  375.6469   1.48081E-23
  375.7532   1.44695E-23
  375.8595   1.42528E-23
  375.9659   1.39946E-23
  376.0722   1.36460E-23
  376.1785   1.35109E-23
  376.2848   1.33025E-23
  376.3911   1.29715E-23
  376.4974   1.28240E-23
  376.6037   1.25825E-23
  376.7100   1.24929E-23
  376.8163   1.22434E-23
  376.9226   1.19880E-23
  377.0290   1.17931E-23
  377.1353   1.16802E-23
  377.2416   1.15953E-23
  377.3479   1.15207E-23
  377.4542   1.15633E-23
  377.5605   1.16230E-23
  377.6669   1.16379E-23
  377.7732   1.16292E-23
  377.8795   1.16035E-23
  377.9858   1.17221E-23
  378.0922   1.15950E-23
  378.1985   1.15095E-23
  378.3048   1.15796E-23
  378.4112   1.16080E-23
  378.5175   1.19372E-23
  378.6238   1.22915E-23
  378.7302   1.27099E-23
  378.8365   1.29795E-23
  378.9428   1.31316E-23
  379.0492   1.31791E-23
  379.1555   1.30500E-23
  379.2619   1.30530E-23
  379.3682   1.31600E-23
  379.4746   1.35788E-23
  379.5809   1.37878E-23
  379.6872   1.37566E-23
  379.7936   1.35679E-23
  379.9000   1.34226E-23
  380.0063   1.32547E-23
  380.1127   1.30447E-23
  380.2190   1.27931E-23
  380.3254   1.26362E-23
  380.4318   1.25511E-23
  380.5381   1.24409E-23
  380.6445   1.23376E-23
  380.7509   1.21999E-23
  380.8572   1.21276E-23
  380.9636   1.20119E-23
  381.0700   1.18648E-23
  381.1764   1.18113E-23
  381.2827   1.17871E-23
  381.3891   1.17361E-23
  381.4955   1.17134E-23
  381.6019   1.16299E-23
  381.7083   1.16113E-23
  381.8147   1.15619E-23
  381.9211   1.15346E-23
  382.0275   1.15750E-23
  382.1339   1.15238E-23
  382.2403   1.13749E-23
  382.3467   1.14155E-23
  382.4531   1.13516E-23
  382.5595   1.15085E-23
  382.6659   1.15951E-23
  382.7723   1.17289E-23
  382.8787   1.17792E-23
  382.9851   1.18816E-23
  383.0916   1.20247E-23
  383.1980   1.22132E-23
  383.3044   1.23061E-23
  383.4108   1.23431E-23
  383.5173   1.23296E-23
  383.6237   1.22689E-23
  383.7301   1.23806E-23
  383.8366   1.22702E-23
  383.9430   1.23047E-23
  384.0495   1.23022E-23
  384.1559   1.22623E-23
  384.2623   1.21178E-23
  384.3688   1.20720E-23
  384.4753   1.20602E-23
  384.5817   1.19085E-23
  384.6882   1.19263E-23
  384.7946   1.17758E-23
  384.9011   1.17399E-23
  385.0076   1.16681E-23
  385.1140   1.16658E-23
  385.2205   1.16500E-23
  385.3270   1.15931E-23
  385.4334   1.15562E-23
  385.5399   1.15831E-23
  385.6464   1.14559E-23
  385.7529   1.13605E-23
  385.8594   1.14381E-23
  385.9659   1.13223E-23
  386.0724   1.14563E-23
  386.1789   1.14506E-23
  386.2854   1.14250E-23
  386.3919   1.15238E-23
  386.4984   1.15012E-23
  386.6049   1.15099E-23
  386.7114   1.14636E-23
  386.8179   1.15246E-23
  386.9244   1.17096E-23
  387.0309   1.17745E-23
  387.1374   1.19204E-23
  387.2440   1.21400E-23
  387.3505   1.23213E-23
  387.4570   1.23231E-23
  387.5636   1.24320E-23
  387.6701   1.25000E-23
  387.7766   1.25765E-23
  387.8832   1.26765E-23
  387.9897   1.27648E-23
  388.0963   1.28388E-23
  388.2028   1.30037E-23
  388.3093   1.30836E-23
  388.4159   1.30538E-23
  388.5225   1.31177E-23
  388.6290   1.31757E-23
  388.7356   1.31784E-23
  388.8421   1.32518E-23
  388.9487   1.33027E-23
  389.0553   1.34228E-23
  389.1618   1.32568E-23
  389.2684   1.32100E-23
  389.3750   1.32715E-23
  389.4816   1.32054E-23
  389.5882   1.31724E-23
  389.6947   1.32529E-23
  389.8013   1.31014E-23
  389.9079   1.29369E-23
  390.0145   1.29224E-23
  390.1211   1.30401E-23
  390.2277   1.30610E-23
  390.3343   1.30204E-23
  390.4409   1.30456E-23
  390.5475   1.29753E-23
  390.6541   1.30971E-23
  390.7607   1.30023E-23
  390.8673   1.29470E-23
  390.9739   1.30238E-23
  391.0805   1.30630E-23
  391.1872   1.30660E-23
  391.2938   1.30814E-23
  391.4004   1.30786E-23
  391.5070   1.30852E-23
  391.6136   1.30196E-23
  391.7203   1.31388E-23
  391.8269   1.31373E-23
  391.9335   1.30376E-23
  392.0402   1.32747E-23
  392.1468   1.33277E-23
  392.2534   1.33128E-23
  392.3601   1.34619E-23
  392.4667   1.33660E-23
  392.5734   1.34748E-23
  392.6800   1.35688E-23
  392.7867   1.36616E-23
  392.8933   1.37198E-23
  393.0000   1.38127E-23
  393.1066   1.39394E-23
  393.2133   1.41754E-23
  393.3199   1.43760E-23
  393.4266   1.44513E-23
  393.5333   1.47379E-23
  393.6399   1.48119E-23
  393.7466   1.49274E-23
  393.8532   1.51241E-23
  393.9599   1.53478E-23
  394.0666   1.55335E-23
  394.1732   1.57424E-23
  394.2799   1.58974E-23
  394.3866   1.61171E-23
  394.4933   1.61491E-23
  394.5999   1.64150E-23
  394.7066   1.65683E-23
  394.8133   1.66623E-23
  394.9200   1.67279E-23
  395.0267   1.67578E-23
  395.1333   1.70131E-23
  395.2400   1.71234E-23
  395.3467   1.71310E-23
  395.4534   1.73515E-23
  395.5601   1.74197E-23
  395.6668   1.73584E-23
  395.7734   1.73536E-23
  395.8801   1.73508E-23
  395.9868   1.74085E-23
  396.0935   1.73656E-23
  396.2002   1.73590E-23
  396.3069   1.72794E-23
  396.4136   1.71749E-23
  396.5203   1.70207E-23
  396.6270   1.70362E-23
  396.7337   1.69737E-23
  396.8404   1.69016E-23
  396.9470   1.68327E-23
  397.0537   1.67741E-23
  397.1604   1.66018E-23
  397.2671   1.65139E-23
  397.3738   1.65492E-23
  397.4805   1.65542E-23
  397.5872   1.67719E-23
  397.6939   1.66177E-23
  397.8006   1.65979E-23
  397.9073   1.66375E-23
  398.0140   1.66041E-23
  398.1207   1.67103E-23
  398.2274   1.66467E-23
  398.3341   1.65700E-23
  398.4408   1.66074E-23
  398.5475   1.65669E-23
  398.6541   1.65201E-23
  398.7608   1.64827E-23
  398.8675   1.64031E-23
  398.9742   1.64775E-23
  399.0809   1.65604E-23
  399.1876   1.67257E-23
  399.2943   1.67287E-23
  399.4010   1.65555E-23
  399.5076   1.66819E-23
  399.6143   1.67086E-23
  399.7210   1.65324E-23
  399.8277   1.67873E-23
  399.9344   1.68841E-23
  400.0410   1.70937E-23
  400.1477   1.72496E-23
  400.2544   1.73418E-23
  400.3611   1.72115E-23
  400.4677   1.74198E-23
  400.5744   1.76427E-23
  400.6811   1.76867E-23
  400.7877   1.77935E-23
  400.8944   1.80764E-23
  401.0011   1.84100E-23
  401.1077   1.88218E-23
  401.2144   1.88392E-23
  401.3210   1.90797E-23
  401.4277   1.90580E-23
  401.5343   1.93811E-23
  401.6410   1.96105E-23
  401.7476   1.99042E-23
  401.8543   2.00551E-23
  401.9609   2.03540E-23
  402.0675   2.05208E-23
  402.1742   2.05911E-23
  402.2808   2.08956E-23
  402.3874   2.08947E-23
  402.4941   2.10305E-23
  402.6007   2.10515E-23
  402.7073   2.10280E-23
  402.8139   2.12957E-23
  402.9205   2.12680E-23
  403.0271   2.14240E-23
  403.1337   2.12701E-23
  403.2403   2.15623E-23
  403.3469   2.14787E-23
  403.4535   2.14003E-23
  403.5601   2.13173E-23
  403.6667   2.12621E-23
  403.7733   2.12031E-23
  403.8798   2.14096E-23
  403.9864   2.12282E-23
  404.0930   2.12074E-23
  404.1995   2.13957E-23
  404.3061   2.09479E-23
  404.4126   2.10105E-23
  404.5192   2.11781E-23
  404.6257   2.13421E-23
  404.7322   2.09632E-23
  404.8388   2.09581E-23
  404.9453   2.11634E-23
  405.0518   2.11983E-23
  405.1583   2.08357E-23
  405.2648   2.11999E-23
  405.3713   2.11282E-23
  405.4778   2.16377E-23
  405.5843   2.12819E-23
  405.6908   2.15717E-23
  405.7973   2.20824E-23
  405.9038   2.19003E-23
  406.0102   2.22932E-23
  406.1167   2.21188E-23
  406.2231   2.27122E-23
  406.3296   2.30579E-23
  406.4360   2.28745E-23
  406.5424   2.35787E-23
  406.6489   2.37343E-23
  406.7553   2.43784E-23
  406.7864   2.49029E-23
  407.0325   2.57362E-23
  407.2787   2.64891E-23
  407.5248   2.74367E-23
  407.7708   2.85021E-23
  408.0168   2.95278E-23
  408.2627   3.04709E-23
  408.5086   3.13455E-23
  408.7545   3.22936E-23
  409.0003   3.30438E-23
  409.2461   3.35222E-23
  409.4918   3.40161E-23
  409.7375   3.43271E-23
  409.9831   3.47631E-23
  410.2287   3.48256E-23
  410.4743   3.49946E-23
  410.7198   3.50891E-23
  410.9652   3.51021E-23
  411.2106   3.48222E-23
  411.4560   3.45502E-23
  411.7013   3.42420E-23
  411.9466   3.39240E-23
  412.1919   3.34279E-23
  412.4371   3.30518E-23
  412.6822   3.26783E-23
  412.9273   3.24952E-23
  413.1724   3.24735E-23
  413.4174   3.22500E-23
  413.6624   3.24938E-23
  413.9073   3.26033E-23
  414.1522   3.29565E-23
  414.3971   3.35085E-23
  414.6419   3.40694E-23
  414.8866   3.49538E-23
  415.1314   3.58726E-23
  415.3760   3.67754E-23
  415.6207   3.78513E-23
  415.8653   3.89053E-23
  416.1098   3.99125E-23
  416.3543   4.07931E-23
  416.5988   4.19366E-23
  416.8432   4.26460E-23
  417.0875   4.32510E-23
  417.3319   4.38411E-23
  417.5762   4.43057E-23
  417.8204   4.45688E-23
  418.0646   4.46911E-23
  418.3087   4.47154E-23
  418.5529   4.45927E-23
  418.7969   4.44280E-23
  419.0410   4.41789E-23
  419.2849   4.38724E-23
  419.5289   4.36190E-23
  419.7728   4.35307E-23
  420.0166   4.37890E-23
  420.2604   4.41275E-23
  420.5042   4.47017E-23
  420.7479   4.54878E-23
  420.9916   4.63843E-23
  421.2353   4.73978E-23
  421.4789   4.87363E-23
  421.7224   5.02552E-23
  421.9659   5.19309E-23
  422.2094   5.38079E-23
  422.4528   5.58522E-23
  422.6962   5.80366E-23
  422.9396   6.01866E-23
  423.1829   6.22799E-23
  423.4261   6.43109E-23
  423.6694   6.64667E-23
  423.9125   6.86354E-23
  424.1557   7.08235E-23
  424.3988   7.28442E-23
  424.6418   7.46778E-23
  424.8848   7.62980E-23
  425.1278   7.74176E-23
  425.3707   7.83695E-23
  425.6136   7.89897E-23
  425.8565   7.94158E-23
  426.0993   7.95591E-23
  426.3420   7.93281E-23
  426.5848   7.87672E-23
  426.8274   7.83592E-23
  427.0701   7.77752E-23
  427.3127   7.69495E-23
  427.5552   7.58646E-23
  427.7977   7.49454E-23
  428.0402   7.39023E-23
  428.2826   7.29631E-23
  428.5250   7.19221E-23
  428.7674   7.09800E-23
  429.0097   7.02028E-23
  429.2520   6.97524E-23
  429.4942   6.96060E-23
  429.7364   6.99776E-23
  429.9785   7.04225E-23
  430.2206   7.12052E-23
  430.4627   7.23566E-23
  430.7047   7.39443E-23
  430.9467   7.57031E-23
  431.1887   7.75704E-23
  431.4306   7.97117E-23
  431.6724   8.19984E-23
  431.9143   8.40943E-23
  432.1560   8.62715E-23
  432.3978   8.83146E-23
  432.6395   9.00404E-23
  432.8812   9.16040E-23
  433.1228   9.27836E-23
  433.3644   9.37009E-23
  433.6059   9.42092E-23
  433.8474   9.44590E-23
  434.0889   9.45255E-23
  434.3303   9.42473E-23
  434.5717   9.40273E-23
  434.8131   9.35514E-23
  435.0544   9.31142E-23
  435.2957   9.26922E-23
  435.5369   9.25745E-23
  435.7781   9.24879E-23
  436.0192   9.25625E-23
  436.2604   9.29611E-23
  436.5014   9.36859E-23
  436.7425   9.46526E-23
  436.9835   9.58805E-23
  437.2244   9.76834E-23
  437.4654   9.98252E-23
  437.7062   1.02612E-22
  437.9471   1.05732E-22
  438.1879   1.09332E-22
  438.4287   1.13168E-22
  438.6694   1.17187E-22
  438.9101   1.21398E-22
  439.1508   1.25818E-22
  439.3914   1.30574E-22
  439.6320   1.35444E-22
  439.8725   1.40570E-22
  440.1130   1.45640E-22
  440.3535   1.50628E-22
  440.5939   1.55202E-22
  440.8343   1.59557E-22
  441.0747   1.63851E-22
  441.3150   1.68107E-22
  441.5553   1.71913E-22
  441.7955   1.75468E-22
  442.0357   1.78578E-22
  442.2759   1.81145E-22
  442.5160   1.83441E-22
  442.7561   1.85102E-22
  442.9962   1.86029E-22
  443.2362   1.86482E-22
  443.4762   1.86199E-22
  443.7161   1.85366E-22
  443.9561   1.84087E-22
  444.1959   1.82216E-22
  444.4358   1.79925E-22
  444.6756   1.77262E-22
  444.9154   1.74579E-22
  445.1551   1.71885E-22
  445.3948   1.68963E-22
  445.6345   1.66224E-22
  445.8741   1.63741E-22
  446.1137   1.61669E-22
  446.3532   1.59992E-22
  446.5928   1.58822E-22
  446.8323   1.57875E-22
  447.0717   1.57768E-22
  447.3111   1.58450E-22
  447.5505   1.59526E-22
  447.7899   1.61428E-22
  448.0292   1.63881E-22
  448.2684   1.66933E-22
  448.5077   1.70467E-22
  448.7469   1.74488E-22
  448.9861   1.78686E-22
  449.2252   1.82954E-22
  449.4643   1.87108E-22
  449.7034   1.91237E-22
  449.9424   1.95339E-22
  450.1814   2.01208E-22
  450.4204   2.05166E-22
  450.6593   2.06644E-22
  450.8982   2.06632E-22
  451.1371   2.07098E-22
  451.3759   2.07571E-22
  451.6147   2.07759E-22
  451.8535   2.07689E-22
  452.0922   2.07316E-22
  452.3309   2.07276E-22
  452.5696   2.07948E-22
  452.8083   2.07591E-22
  453.0469   2.05827E-22
  453.2854   2.04276E-22
  453.5240   2.03680E-22
  453.7625   2.03450E-22
  454.0009   2.03701E-22
  454.2394   2.04998E-22
  454.4778   2.06976E-22
  454.7162   2.09517E-22
  454.9545   2.12952E-22
  455.1928   2.16967E-22
  455.4311   2.21567E-22
  455.6693   2.26527E-22
  455.9076   2.32020E-22
  456.1457   2.38178E-22
  456.3839   2.45318E-22
  456.6220   2.53041E-22
  456.8601   2.61153E-22
  457.0982   2.69737E-22
  457.3362   2.78729E-22
  457.5742   2.87622E-22
  457.8122   2.96653E-22
  458.0501   3.05997E-22
  458.2880   3.15408E-22
  458.5259   3.24733E-22
  458.7637   3.34115E-22
  459.0015   3.43380E-22
  459.2393   3.52786E-22
  459.4771   3.61945E-22
  459.7148   3.71014E-22
  459.9525   3.79738E-22
  460.1901   3.88074E-22
  460.4278   3.95836E-22
  460.6654   4.02868E-22
  460.9030   4.08990E-22
  461.1405   4.14114E-22
  461.3780   4.18071E-22
  461.6155   4.21109E-22
  461.8530   4.22792E-22
  462.0904   4.23347E-22
  462.3278   4.22542E-22
  462.5652   4.20704E-22
  462.8025   4.17705E-22
  463.0398   4.14198E-22
  463.2771   4.09778E-22
  463.5144   4.04975E-22
  463.7516   3.99374E-22
  463.9888   3.93700E-22
  464.2260   3.87707E-22
  464.4631   3.81964E-22
  464.7002   3.76473E-22
  464.9373   3.71262E-22
  465.1744   3.66536E-22
  465.4114   3.62743E-22
  465.6484   3.59596E-22
  465.8854   3.57327E-22
  466.1223   3.55972E-22
  466.3593   3.55943E-22
  466.5962   3.56765E-22
  466.8330   3.58909E-22
  467.0699   3.62188E-22
  467.3067   3.66572E-22
  467.5435   3.72326E-22
  467.7802   3.78807E-22
  468.0170   3.85123E-22
  468.2537   3.91573E-22
  468.4904   3.97854E-22
  468.7270   4.04068E-22
  468.9637   4.09918E-22
  469.2003   4.15956E-22
  469.4369   4.21237E-22
  469.6734   4.25763E-22
  469.9100   4.29658E-22
  470.1465   4.32973E-22
  470.3830   4.35331E-22
  470.6194   4.37263E-22
  470.8558   4.38539E-22
  471.0922   4.39411E-22
  471.3286   4.39802E-22
  471.5650   4.39710E-22
  471.8013   4.39503E-22
  472.0376   4.39315E-22
  472.2739   4.39100E-22
  472.5102   4.39064E-22
  472.7464   4.39250E-22
  472.9826   4.40046E-22
  473.2188   4.41246E-22
  473.4550   4.43147E-22
  473.6911   4.45606E-22
  473.9272   4.48218E-22
  474.1633   4.51579E-22
  474.3994   4.56250E-22
  474.6355   4.61632E-22
  474.8715   4.68335E-22
  475.1075   4.75907E-22
  475.3435   4.84663E-22
  475.5794   4.94214E-22
  475.8154   5.04824E-22
  476.0513   5.16049E-22
  476.2872   5.28231E-22
  476.5230   5.41033E-22
  476.7589   5.54452E-22
  476.9947   5.68242E-22
  477.2305   5.82539E-22
  477.4663   5.97210E-22
  477.7021   6.12170E-22
  477.9378   6.27166E-22
  478.1735   6.42745E-22
  478.4092   6.58366E-22
  478.6449   6.74310E-22
  478.8805   6.90350E-22
  479.1162   7.06371E-22
  479.3518   7.22250E-22
  479.5874   7.38326E-22
  479.8230   7.54065E-22
  480.0585   7.69538E-22
  480.2940   7.84559E-22
  480.5296   7.98981E-22
  480.7650   8.12171E-22
  481.0005   8.24283E-22
  481.2360   8.35438E-22
  481.4714   8.45939E-22
  481.7068   8.54847E-22
  481.9422   8.62107E-22
  482.1776   8.67673E-22
  482.4129   8.71601E-22
  482.6483   8.73619E-22
  482.8836   8.74126E-22
  483.1189   8.72686E-22
  483.3542   8.70487E-22
  483.5894   8.67386E-22
  483.8247   8.63086E-22
  484.0599   8.57572E-22
  484.2951   8.51249E-22
  484.5303   8.44013E-22
  484.7655   8.36456E-22
  485.0006   8.28539E-22
  485.2358   8.20792E-22
  485.4709   8.12998E-22
  485.7060   8.05607E-22
  485.9411   7.98504E-22
  486.1762   7.92188E-22
  486.4112   7.86415E-22
  486.6462   7.81651E-22
  486.8813   7.77735E-22
  487.1163   7.75027E-22
  487.3512   7.73397E-22
  487.5862   7.73117E-22
  487.8212   7.73874E-22
  488.0561   7.75943E-22
  488.2910   7.79389E-22
  488.5259   7.83724E-22
  488.7608   7.88952E-22
  488.9957   7.95125E-22
  489.2305   8.01790E-22
  489.4654   8.09181E-22
  489.7002   8.16709E-22
  489.9350   8.24474E-22
  490.1698   8.31835E-22
  490.4046   8.39352E-22
  490.6394   8.46156E-22
  490.8741   8.52742E-22
  491.1089   8.58474E-22
  491.3436   8.63952E-22
  491.5783   8.68659E-22
  491.8130   8.72177E-22
  492.0477   8.75686E-22
  492.2824   8.79119E-22
  492.5170   8.81926E-22
  492.7517   8.83831E-22
  492.9863   8.85367E-22
  493.2209   8.87265E-22
  493.4555   8.88861E-22
  493.6901   8.90554E-22
  493.9247   8.92172E-22
  494.1592   8.94255E-22
  494.3938   8.96221E-22
  494.6283   8.98634E-22
  494.8628   9.01854E-22
  495.0974   9.05832E-22
  495.3319   9.10124E-22
  495.5664   9.15429E-22
  495.8008   9.21648E-22
  496.0353   9.28615E-22
  496.2698   9.36734E-22
  496.5042   9.45836E-22
  496.7386   9.55981E-22
  496.9731   9.67189E-22
  497.2075   9.79217E-22
  497.4419   9.92358E-22
  497.6763   1.00620E-21
  497.9106   1.02148E-21
  498.1450   1.03702E-21
  498.3794   1.05287E-21
  498.6137   1.06782E-21
  498.8480   1.09133E-21
  499.0824   1.10669E-21
  499.3167   1.12871E-21
  499.5510   1.15247E-21
  499.7853   1.17520E-21
  500.0196   1.19230E-21
  500.2539   1.21256E-21
  500.4881   1.23440E-21
  500.7224   1.25996E-21
  500.9566   1.28336E-21
  501.1909   1.30722E-21
  501.4251   1.33256E-21
  501.6593   1.35266E-21
  501.8936   1.37701E-21
  502.1278   1.40262E-21
  502.3620   1.42647E-21
  502.5962   1.44760E-21
  502.8304   1.47259E-21
  503.0645   1.49728E-21
  503.2987   1.51283E-21
  503.5329   1.53166E-21
  503.7670   1.55099E-21
  504.0012   1.56512E-21
  504.2353   1.58453E-21
  504.4694   1.59675E-21
  504.7036   1.60421E-21
  504.9377   1.61548E-21
  505.1718   1.62721E-21
  505.4059   1.63846E-21
  505.6400   1.64369E-21
  505.8741   1.64861E-21
  506.1082   1.65047E-21
  506.3423   1.64898E-21
  506.5764   1.64996E-21
  506.8104   1.64999E-21
  507.0445   1.64763E-21
  507.2786   1.64324E-21
  507.5126   1.64219E-21
  507.7467   1.63828E-21
  507.9807   1.63018E-21
  508.2147   1.62011E-21
  508.4488   1.61021E-21
  508.6828   1.60696E-21
  508.9168   1.59928E-21
  509.1509   1.59423E-21
  509.3849   1.59093E-21
  509.6189   1.58089E-21
  509.8529   1.57710E-21
  510.0869   1.57379E-21
  510.3209   1.57080E-21
  510.5549   1.56514E-21
  510.7889   1.56556E-21
  511.0229   1.56548E-21
  511.2569   1.56004E-21
  511.4909   1.56351E-21
  511.7249   1.56630E-21
  511.9588   1.57167E-21
  512.1928   1.57309E-21
  512.4268   1.57974E-21
  512.6608   1.58164E-21
  512.8947   1.58918E-21
  513.1287   1.59917E-21
  513.3627   1.60437E-21
  513.5967   1.61520E-21
  513.8306   1.62316E-21
  514.0646   1.63562E-21
  514.2985   1.64554E-21
  514.5325   1.65017E-21
  514.7665   1.66111E-21
  515.0004   1.66773E-21
  515.2344   1.67506E-21
  515.4683   1.68250E-21
  515.7023   1.69318E-21
  515.9362   1.69965E-21
  516.1702   1.71117E-21
  516.4042   1.71755E-21
  516.6381   1.72104E-21
  516.8721   1.73151E-21
  517.1060   1.73883E-21
  517.3400   1.74270E-21
  517.5739   1.74892E-21
  517.8079   1.75457E-21
  518.0418   1.76165E-21
  518.2758   1.77243E-21
  518.5098   1.78148E-21
  518.7437   1.78655E-21
  518.9777   1.79819E-21
  519.2117   1.80038E-21
  519.4456   1.81109E-21
  519.6796   1.81601E-21
  519.9136   1.82199E-21
  520.1475   1.84051E-21
  520.3815   1.84727E-21
  520.6155   1.85524E-21
  520.8494   1.86062E-21
  521.0834   1.88087E-21
  521.3174   1.89501E-21
  521.5514   1.90943E-21
  521.7854   1.92096E-21
  522.0194   1.93456E-21
  522.2534   1.95125E-21
  522.4874   1.96708E-21
  522.7214   1.98538E-21
  522.9554   2.00304E-21
  523.1894   2.02265E-21
  523.4234   2.04076E-21
  523.6574   2.06095E-21
  523.8914   2.07745E-21
  524.1254   2.10786E-21
  524.3595   2.13179E-21
  524.5935   2.14797E-21
  524.8275   2.16736E-21
  525.0616   2.19606E-21
  525.2956   2.21861E-21
  525.5297   2.24212E-21
  525.7637   2.26013E-21
  525.9978   2.28787E-21
  526.2319   2.31548E-21
  526.4659   2.33926E-21
  526.7000   2.36014E-21
  526.9341   2.38448E-21
  527.1682   2.40130E-21
  527.4023   2.42976E-21
  527.6364   2.45737E-21
  527.8705   2.47801E-21
  528.1046   2.50075E-21
  528.3387   2.52692E-21
  528.5728   2.55089E-21
  528.8070   2.56875E-21
  529.0411   2.59304E-21
  529.2753   2.61814E-21
  529.5094   2.63376E-21
  529.7436   2.65737E-21
  529.9777   2.68185E-21
  530.2119   2.70179E-21
  530.4461   2.72170E-21
  530.6803   2.73890E-21
  530.9145   2.75464E-21
  531.1487   2.77343E-21
  531.3829   2.79260E-21
  531.6171   2.80099E-21
  531.8514   2.81437E-21
  532.0856   2.82891E-21
  532.3199   2.83781E-21
  532.5541   2.84813E-21
  532.7884   2.86132E-21
  533.0227   2.87167E-21
  533.2570   2.87919E-21
  533.4913   2.88732E-21
  533.7256   2.88408E-21
  533.9599   2.88956E-21
  534.1942   2.88814E-21
  534.4285   2.89197E-21
  534.6629   2.89363E-21
  534.8972   2.89535E-21
  535.1316   2.89390E-21
  535.3660   2.89440E-21
  535.6004   2.89113E-21
  535.8348   2.89373E-21
  536.0692   2.89250E-21
  536.3036   2.89412E-21
  536.5380   2.88695E-21
  536.7725   2.89209E-21
  537.0069   2.88937E-21
  537.2414   2.88768E-21
  537.4758   2.88859E-21
  537.7103   2.89132E-21
  537.9448   2.89443E-21
  538.1793   2.90473E-21
  538.4139   2.89944E-21
  538.6484   2.90154E-21
  538.8829   2.91087E-21
  539.1175   2.91806E-21
  539.3521   2.92693E-21
  539.5866   2.93648E-21
  539.8212   2.94502E-21
  540.0558   2.95939E-21
  540.2905   2.97326E-21
  540.5251   2.98558E-21
  540.7598   2.99689E-21
  540.9944   3.01058E-21
  541.2291   3.01381E-21
  541.4638   3.02910E-21
  541.6985   3.04543E-21
  541.9332   3.05734E-21
  542.1679   3.07207E-21
  542.4027   3.08379E-21
  542.6374   3.10183E-21
  542.8722   3.11827E-21
  543.1070   3.13033E-21
  543.3418   3.14518E-21
  543.5766   3.15924E-21
  543.8114   3.16788E-21
  544.0463   3.17902E-21
  544.2811   3.19768E-21
  544.5160   3.20530E-21
  544.7509   3.21613E-21
  544.9858   3.22616E-21
  545.2207   3.23645E-21
  545.4557   3.24923E-21
  545.6906   3.26259E-21
  545.9256   3.26881E-21
  546.1606   3.27872E-21
  546.3956   3.28835E-21
  546.6306   3.29346E-21
  546.8656   3.30004E-21
  547.1007   3.31415E-21
  547.3358   3.32261E-21
  547.5708   3.32871E-21
  547.8059   3.34019E-21
  548.0411   3.34552E-21
  548.2762   3.35251E-21
  548.5113   3.35292E-21
  548.7465   3.36845E-21
  548.9817   3.37120E-21
  549.2169   3.37836E-21
  549.4521   3.38752E-21
  549.6874   3.39715E-21
  549.9226   3.40308E-21
  550.1579   3.40923E-21
  550.3932   3.41887E-21
  550.6285   3.42529E-21
  550.8638   3.43635E-21
  551.0992   3.43934E-21
  551.3346   3.44877E-21
  551.5699   3.45509E-21
  551.8053   3.46351E-21
  552.0408   3.47313E-21
  552.2762   3.48224E-21
  552.5117   3.48825E-21
  552.7472   3.49565E-21
  552.9827   3.50705E-21
  553.2182   3.52020E-21
  553.4537   3.53020E-21
  553.6893   3.53811E-21
  553.9249   3.55166E-21
  554.1605   3.56584E-21
  554.3961   3.57284E-21
  554.6317   3.57816E-21
  554.8674   3.58822E-21
  555.1031   3.60551E-21
  555.3388   3.61778E-21
  555.5745   3.63052E-21
  555.8102   3.64665E-21
  556.0460   3.66145E-21
  556.2818   3.67922E-21
  556.5176   3.68945E-21
  556.7534   3.70903E-21
  556.9893   3.72969E-21
  557.2251   3.74402E-21
  557.4610   3.76620E-21
  557.6969   3.78277E-21
  557.9329   3.80437E-21
  558.1688   3.82706E-21
  558.4048   3.84363E-21
  558.6408   3.86581E-21
  558.8768   3.89328E-21
  559.1129   3.91259E-21
  559.3489   3.93897E-21
  559.5850   3.96053E-21
  559.8211   3.98156E-21
  560.0573   4.00422E-21
  560.2934   4.03316E-21
  560.5296   4.05771E-21
  560.7658   4.07958E-21
  561.0020   4.10497E-21
  561.2383   4.13075E-21
  561.4746   4.15484E-21
  561.7109   4.17538E-21
  561.9472   4.19962E-21
  562.1835   4.21731E-21
  562.4199   4.24169E-21
  562.6563   4.26255E-21
  562.8927   4.28418E-21
  563.1291   4.31251E-21
  563.3656   4.32923E-21
  563.6021   4.34147E-21
  563.8386   4.35618E-21
  564.0752   4.37982E-21
  564.3117   4.38934E-21
  564.5483   4.41442E-21
  564.7849   4.43050E-21
  565.0215   4.44663E-21
  565.2582   4.45917E-21
  565.4949   4.47318E-21
  565.7316   4.49423E-21
  565.9683   4.50552E-21
  566.2051   4.51921E-21
  566.4419   4.53735E-21
  566.6787   4.54801E-21
  566.9155   4.56496E-21
  567.1524   4.58145E-21
  567.3893   4.59283E-21
  567.6262   4.60074E-21
  567.8632   4.60921E-21
  568.1001   4.62683E-21
  568.3371   4.63949E-21
  568.5742   4.65437E-21
  568.8112   4.67086E-21
  569.0483   4.67752E-21
  569.2854   4.69881E-21
  569.5225   4.71111E-21
  569.7597   4.72189E-21
  569.9968   4.73361E-21
  570.2341   4.74699E-21
  570.4713   4.76047E-21
  570.7086   4.77433E-21
  570.9458   4.78774E-21
  571.1832   4.80563E-21
  571.4205   4.80809E-21
  571.6579   4.81521E-21
  571.8953   4.82965E-21
  572.1327   4.84335E-21
  572.3702   4.84938E-21
  572.6077   4.85762E-21
  572.8452   4.86821E-21
  573.0827   4.87262E-21
  573.3203   4.87605E-21
  573.5579   4.88743E-21
  573.7955   4.88851E-21
  574.0332   4.88685E-21
  574.2709   4.89635E-21
  574.5086   4.89283E-21
  574.7463   4.88926E-21
  574.9841   4.89165E-21
  575.2219   4.88649E-21
  575.4597   4.87995E-21
  575.6976   4.87865E-21
  575.9355   4.87713E-21
  576.1734   4.86611E-21
  576.4113   4.86018E-21
  576.6493   4.84926E-21
  576.8873   4.84848E-21
  577.1253   4.83539E-21
  577.3634   4.82599E-21
  577.6015   4.82107E-21
  577.8396   4.81294E-21
  578.0778   4.79989E-21
  578.3160   4.79869E-21
  578.5542   4.78118E-21
  578.7924   4.77007E-21
  579.0307   4.75184E-21
  579.2690   4.74754E-21
  579.5073   4.73771E-21
  579.7457   4.72432E-21
  579.9841   4.71031E-21
  580.2225   4.70368E-21
  580.4610   4.68791E-21
  580.6995   4.68408E-21
  580.9380   4.67270E-21
  581.1766   4.65517E-21
  581.4151   4.64410E-21
  581.6538   4.63657E-21
  581.8924   4.62917E-21
  582.1311   4.62102E-21
  582.3698   4.60749E-21
  582.6085   4.59710E-21
  582.8473   4.58905E-21
  583.0861   4.58454E-21
  583.3249   4.57530E-21
  583.5638   4.56631E-21
  583.8027   4.56149E-21
  584.0416   4.55630E-21
  584.2806   4.55138E-21
  584.5196   4.54687E-21
  584.7586   4.53930E-21
  584.9977   4.53559E-21
  585.2368   4.52739E-21
  585.4759   4.52274E-21
  585.7151   4.52078E-21
  585.9543   4.51606E-21
  586.1935   4.51150E-21
  586.4327   4.51068E-21
  586.6720   4.50513E-21
  586.9114   4.51258E-21
  587.1507   4.50615E-21
  587.3901   4.50549E-21
  587.6295   4.50070E-21
  587.8690   4.50053E-21
  588.1085   4.49679E-21
  588.3480   4.49881E-21
  588.5875   4.50234E-21
  588.8271   4.50359E-21
  589.0668   4.50214E-21
  589.3064   4.51075E-21
  589.5461   4.51454E-21
  589.7858   4.51854E-21
  590.0256   4.51871E-21
  590.2654   4.52085E-21
  590.5052   4.53390E-21
  590.7451   4.53952E-21
  590.9850   4.55076E-21
  591.2249   4.55319E-21
  591.4648   4.56156E-21
  591.7048   4.57617E-21
  591.9449   4.58955E-21
  592.1849   4.60371E-21
  592.4250   4.60964E-21
  592.6652   4.62474E-21
  592.9053   4.63918E-21
  593.1455   4.65524E-21
  593.3858   4.67219E-21
  593.6260   4.69071E-21
  593.8664   4.70971E-21
  594.1067   4.73257E-21
  594.3471   4.75087E-21
  594.5875   4.76459E-21
  594.8279   4.79133E-21
  595.0684   4.81169E-21
  595.3089   4.82541E-21
  595.5495   4.85200E-21
  595.7901   4.87265E-21
  596.0307   4.88880E-21
  596.2714   4.91412E-21
  596.5120   4.93835E-21
  596.7528   4.96022E-21
  596.9935   4.98161E-21
  597.2343   5.00527E-21
  597.4752   5.02709E-21
  597.7161   5.05010E-21
  597.9570   5.07541E-21
  598.1979   5.09673E-21
  598.4389   5.10845E-21
  598.6799   5.13449E-21
  598.8294   5.15446E-21
  599.0535   5.16934E-21
  599.2775   5.18687E-21
  599.5015   5.21009E-21
  599.7254   5.22391E-21
  599.9492   5.24136E-21
  600.1731   5.24597E-21
  600.3968   5.25692E-21
  600.6205   5.26589E-21
  600.8442   5.27802E-21
  601.0678   5.28988E-21
  601.2913   5.28703E-21
  601.5148   5.29547E-21
  601.7383   5.30447E-21
  601.9617   5.30237E-21
  602.1850   5.30061E-21
  602.4083   5.31146E-21
  602.6316   5.30816E-21
  602.8548   5.31168E-21
  603.0779   5.30671E-21
  603.3010   5.30037E-21
  603.5240   5.29465E-21
  603.7470   5.29735E-21
  603.9700   5.28660E-21
  604.1929   5.27910E-21
  604.4157   5.27020E-21
  604.6385   5.25694E-21
  604.8612   5.25173E-21
  605.0839   5.24040E-21
  605.3066   5.23126E-21
  605.5291   5.21117E-21
  605.7517   5.19492E-21
  605.9742   5.18708E-21
  606.1966   5.17394E-21
  606.4190   5.16495E-21
  606.6413   5.14035E-21
  606.8636   5.13182E-21
  607.0859   5.11414E-21
  607.3080   5.09557E-21
  607.5302   5.08311E-21
  607.7523   5.05460E-21
  607.9743   5.03838E-21
  608.1963   5.02328E-21
  608.4182   5.00708E-21
  608.6401   4.98347E-21
  608.8620   4.96963E-21
  609.0838   4.94966E-21
  609.3055   4.92598E-21
  609.5272   4.91123E-21
  609.7489   4.88936E-21
  609.9705   4.86604E-21
  610.1920   4.84771E-21
  610.4135   4.82420E-21
  610.6350   4.81096E-21
  610.8564   4.79469E-21
  611.0777   4.77315E-21
  611.2990   4.75227E-21
  611.5203   4.73320E-21
  611.7415   4.71285E-21
  611.9627   4.69421E-21
  612.1838   4.67219E-21
  612.4049   4.65734E-21
  612.6259   4.64222E-21
  612.8469   4.62370E-21
  613.0678   4.60245E-21
  613.2887   4.58466E-21
  613.5095   4.56395E-21
  613.7303   4.55141E-21
  613.9510   4.53424E-21
  614.1717   4.51635E-21
  614.3924   4.48910E-21
  614.6129   4.46486E-21
  614.8335   4.45003E-21
  615.0540   4.44340E-21
  615.2745   4.42725E-21
  615.4949   4.41350E-21
  615.7152   4.39556E-21
  615.9355   4.37268E-21
  616.1558   4.36026E-21
  616.3760   4.35114E-21
  616.5962   4.33689E-21
  616.8163   4.32047E-21
  617.0364   4.30523E-21
  617.2565   4.29132E-21
  617.4765   4.27620E-21
  617.6964   4.26028E-21
  617.9163   4.25042E-21
  618.1361   4.23882E-21
  618.3560   4.21633E-21
  618.5757   4.20347E-21
  618.7954   4.19590E-21
  619.0151   4.18404E-21
  619.2347   4.17702E-21
  619.4543   4.15657E-21
  619.6739   4.14652E-21
  619.8933   4.14126E-21
  620.1128   4.12973E-21
  620.3322   4.12240E-21
  620.5515   4.10591E-21
  620.7709   4.09234E-21
  620.9901   4.08496E-21
  621.2093   4.07702E-21
  621.4285   4.05785E-21
  621.6476   4.04806E-21
  621.8667   4.03581E-21
  622.0858   4.03367E-21
  622.3048   4.01934E-21
  622.5237   4.00741E-21
  622.7426   3.99400E-21
  622.9615   3.99075E-21
  623.1803   3.97999E-21
  623.3991   3.96994E-21
  623.6178   3.96588E-21
  623.8365   3.94657E-21
  624.0552   3.93668E-21
  624.2738   3.93179E-21
  624.4923   3.91898E-21
  624.7109   3.90543E-21
  624.9293   3.89651E-21
  625.1478   3.88342E-21
  625.3662   3.87736E-21
  625.5845   3.86700E-21
  625.8028   3.85810E-21
  626.0211   3.84397E-21
  626.2393   3.83545E-21
  626.4574   3.81850E-21
  626.6756   3.80555E-21
  626.8937   3.79760E-21
  627.1117   3.79087E-21
  627.3297   3.78609E-21
  627.5477   3.77076E-21
  627.7656   3.76471E-21
  627.9835   3.75542E-21
  628.2013   3.73784E-21
  628.4191   3.72632E-21
  628.6368   3.71453E-21
  628.8545   3.70206E-21
  629.0722   3.68974E-21
  629.2898   3.68426E-21
  629.5074   3.66968E-21
  629.7249   3.65248E-21
  629.9424   3.64047E-21
  630.1599   3.62941E-21
  630.3773   3.61634E-21
  630.5947   3.61188E-21
  630.8120   3.59601E-21
  631.0293   3.57860E-21
  631.2465   3.57638E-21
  631.4638   3.56784E-21
  631.6809   3.55335E-21
  631.8980   3.54385E-21
  632.1151   3.52979E-21
  632.3322   3.52121E-21
  632.5492   3.50809E-21
  632.7661   3.49697E-21
  632.9831   3.48383E-21
  633.2000   3.47641E-21
  633.4168   3.46153E-21
  633.6336   3.45347E-21
  633.8504   3.43985E-21
  634.0671   3.42644E-21
  634.2838   3.41706E-21
  634.5004   3.40467E-21
  634.7170   3.40182E-21
  634.9336   3.38707E-21
  635.1501   3.36990E-21
  635.3666   3.35731E-21
  635.5830   3.34730E-21
  635.7994   3.33920E-21
  636.0158   3.33235E-21
  636.2321   3.31494E-21
  636.4484   3.30180E-21
  636.6647   3.28089E-21
  636.8809   3.26484E-21
  637.0970   3.25627E-21
  637.3132   3.23860E-21
  637.5293   3.23023E-21
  637.7453   3.22059E-21
  637.9613   3.20561E-21
  638.1773   3.19712E-21
  638.3933   3.18449E-21
  638.6092   3.17562E-21
  638.8250   3.15490E-21
  639.0408   3.14822E-21
  639.2566   3.13240E-21
  639.4724   3.11731E-21
  639.6881   3.09730E-21
  639.9037   3.08654E-21
  640.1194   3.07299E-21
  640.3350   3.06182E-21
  640.5505   3.04924E-21
  640.7661   3.03081E-21
  640.9815   3.01632E-21
  641.1970   3.00841E-21
  641.4124   3.00034E-21
  641.6278   2.98850E-21
  641.8431   2.97687E-21
  642.0584   2.95937E-21
  642.2737   2.94989E-21
  642.4889   2.94234E-21
  642.7041   2.92819E-21
  642.9192   2.92286E-21
  643.1343   2.90986E-21
  643.3494   2.89682E-21
  643.5644   2.87861E-21
  643.7794   2.86810E-21
  643.9944   2.85963E-21
  644.2093   2.84582E-21
  644.4242   2.83718E-21
  644.6391   2.82380E-21
  644.8539   2.81922E-21
  645.0687   2.81013E-21
  645.2834   2.79913E-21
  645.4982   2.78712E-21
  645.7128   2.78025E-21
  645.9275   2.76446E-21
  646.1421   2.74999E-21
  646.3567   2.74341E-21
  646.5712   2.73593E-21
  646.7857   2.72199E-21
  647.0002   2.71748E-21
  647.2146   2.70897E-21
  647.4290   2.69957E-21
  647.6433   2.69366E-21
  647.8577   2.67832E-21
  648.0720   2.66306E-21
  648.2862   2.65600E-21
  648.5004   2.64891E-21
  648.7146   2.64469E-21
  648.9288   2.63497E-21
  649.1429   2.62354E-21
  649.3570   2.61107E-21
  649.5710   2.59795E-21
  649.7850   2.58636E-21
  649.9990   2.58272E-21
  650.2130   2.57717E-21
  650.4269   2.57177E-21
  650.6407   2.55957E-21
  650.8546   2.54500E-21
  651.0684   2.54435E-21
  651.2822   2.53478E-21
  651.4959   2.52718E-21
  651.7096   2.51963E-21
  651.9233   2.50075E-21
  652.1369   2.49075E-21
  652.3506   2.48455E-21
  652.5641   2.48228E-21
  652.7777   2.47006E-21
  652.9912   2.45291E-21
  653.2047   2.45554E-21
  653.4181   2.44469E-21
  653.6315   2.43760E-21
  653.8449   2.42776E-21
  654.0582   2.41689E-21
  654.2716   2.41199E-21
  654.4848   2.39863E-21
  654.6981   2.38883E-21
  654.9113   2.37315E-21
  655.1245   2.36967E-21
  655.3376   2.35597E-21
  655.5508   2.35515E-21
  655.7639   2.34405E-21
  655.9769   2.33762E-21
  656.1899   2.32579E-21
  656.4029   2.31556E-21
  656.6159   2.31211E-21
  656.8288   2.30080E-21
  657.0417   2.29184E-21
  657.2546   2.28581E-21
  657.4674   2.26964E-21
  657.6802   2.25864E-21
  657.8930   2.25415E-21
  658.1058   2.25003E-21
  658.3185   2.24162E-21
  658.5311   2.22697E-21
  658.7438   2.21889E-21
  658.9564   2.21215E-21
  659.1690   2.20662E-21
  659.3816   2.20521E-21
  659.5941   2.19450E-21
  659.8066   2.18078E-21
  660.0191   2.17194E-21
  660.2315   2.16614E-21
  660.4439   2.15353E-21
  660.6563   2.14648E-21
  660.8686   2.14486E-21
  661.0809   2.13467E-21
  661.2932   2.12800E-21
  661.5055   2.11000E-21
  661.7177   2.11089E-21
  661.9299   2.10611E-21
  662.1421   2.09086E-21
  662.3542   2.09741E-21
  662.5663   2.09105E-21
  662.7784   2.07701E-21
  662.9905   2.06364E-21
  663.2025   2.05931E-21
  663.4145   2.05197E-21
  663.6265   2.03799E-21
  663.8384   2.03178E-21
  664.0503   2.02377E-21
  664.2622   2.01944E-21
  664.4740   2.00874E-21
  664.6858   1.99289E-21
  664.8976   1.98806E-21
  665.1094   1.98385E-21
  665.3211   1.97268E-21
  665.5328   1.95419E-21
  665.7445   1.94676E-21
  665.9562   1.94621E-21
  666.1678   1.93910E-21
  666.3794   1.91967E-21
  666.5910   1.91849E-21
  666.8025   1.90903E-21
  667.0140   1.89339E-21
  667.2255   1.88777E-21
  667.4370   1.87205E-21
  667.6484   1.86074E-21
  667.8598   1.85633E-21
  668.0712   1.84913E-21
  668.2825   1.84833E-21
  668.4939   1.84249E-21
  668.7052   1.82978E-21
  668.9164   1.81769E-21
  669.1277   1.80551E-21
  669.3389   1.79944E-21
  669.5501   1.79000E-21
  669.7612   1.77805E-21
  669.9724   1.77485E-21
  670.1835   1.76724E-21
  670.3946   1.75299E-21
  670.6056   1.74139E-21
  670.8167   1.73758E-21
  671.0277   1.73421E-21
  671.2386   1.72858E-21
  671.4496   1.72346E-21
  671.6605   1.70666E-21
  671.8714   1.69829E-21
  672.0823   1.69010E-21
  672.2932   1.67532E-21
  672.5040   1.66487E-21
  672.7148   1.66210E-21
  672.9256   1.64688E-21
  673.1363   1.64850E-21
  673.3470   1.64415E-21
  673.5577   1.63321E-21
  673.7684   1.62888E-21
  673.9791   1.62219E-21
  674.1897   1.61046E-21
  674.4003   1.60651E-21
  674.6109   1.59534E-21
  674.8214   1.59266E-21
  675.0319   1.57890E-21
  675.2424   1.57055E-21
  675.4529   1.57569E-21
  675.6634   1.56766E-21
  675.8738   1.55216E-21
  676.0842   1.54277E-21
  676.2946   1.53616E-21
  676.5049   1.52953E-21
  676.7153   1.52515E-21
  676.9256   1.51029E-21
  677.1359   1.49754E-21
  677.3461   1.50247E-21
  677.5564   1.49901E-21
  677.7666   1.49125E-21
  677.9768   1.48731E-21
  678.1870   1.47776E-21
  678.3971   1.47106E-21
  678.6072   1.45643E-21
  678.8173   1.45558E-21
  679.0274   1.45028E-21
  679.2375   1.44150E-21
  679.4475   1.43308E-21
  679.6575   1.43124E-21
  679.8675   1.42132E-21
  680.0775   1.41885E-21
  680.2874   1.42018E-21
  680.4973   1.41084E-21
  680.7072   1.40517E-21
  680.9171   1.40448E-21
  681.1270   1.40025E-21
  681.3368   1.39504E-21
  681.5466   1.39352E-21
  681.7564   1.39336E-21
  681.9662   1.38559E-21
  682.1759   1.37525E-21
  682.3857   1.37093E-21
  682.5954   1.36755E-21
  682.8050   1.36360E-21
  683.0147   1.35417E-21
  683.2243   1.35077E-21
  683.4340   1.34452E-21
  683.6436   1.34114E-21
  683.8531   1.33536E-21
  684.0627   1.33923E-21
  684.2722   1.33536E-21
  684.4818   1.33030E-21
  684.6912   1.32094E-21
  684.9007   1.32108E-21
  685.1102   1.32630E-21
  685.3196   1.31585E-21
  685.5290   1.30815E-21
  685.7384   1.29908E-21
  685.9478   1.29409E-21
  686.1571   1.29020E-21
  686.3665   1.27734E-21
  686.5758   1.27629E-21
  686.7851   1.27400E-21
  686.9944   1.26964E-21
  687.2036   1.26434E-21
  687.4128   1.25084E-21
  687.6221   1.24267E-21
  687.8313   1.24142E-21
  688.0404   1.23326E-21
  688.2496   1.21640E-21
  688.4587   1.21873E-21
  688.6679   1.21032E-21
  688.8770   1.20567E-21
  689.0860   1.19965E-21
  689.2951   1.19114E-21
  689.5042   1.18545E-21
  689.7132   1.17499E-21
  689.9222   1.17082E-21
  690.1312   1.16461E-21
  690.3402   1.16245E-21
  690.5491   1.15974E-21
  690.7580   1.14606E-21
  690.9670   1.14095E-21
  691.1759   1.13761E-21
  691.3847   1.12131E-21
  691.5936   1.11465E-21
  691.8025   1.11284E-21
  692.0113   1.10842E-21
  692.2201   1.11118E-21
  692.4289   1.09958E-21
  692.6377   1.09638E-21
  692.8464   1.09150E-21
  693.0552   1.08009E-21
  693.2639   1.07253E-21
  693.4726   1.06803E-21
  693.6813   1.06391E-21
  693.8900   1.05349E-21
  694.0986   1.05683E-21
  694.3073   1.05134E-21
  694.5159   1.03687E-21
  694.7245   1.03633E-21
  694.9331   1.03152E-21
  695.1417   1.02619E-21
  695.3502   1.02469E-21
  695.5588   1.01254E-21
  695.7673   9.99272E-22
  695.9758   9.99858E-22
  696.1843   9.96511E-22
  696.3928   9.96289E-22
  696.6013   9.87343E-22
  696.8097   9.74218E-22
  697.0181   9.68354E-22
  697.2266   9.59502E-22
  697.4350   9.51248E-22
  697.6434   9.46345E-22
  697.8517   9.41219E-22
  698.0601   9.36396E-22
  698.2684   9.31132E-22
  698.4768   9.26336E-22
  698.6851   9.21231E-22
  698.8934   9.16666E-22
  699.1016   9.11870E-22
  699.3099   9.07407E-22
  699.5182   9.02710E-22
  699.7264   8.98384E-22
  699.9346   8.94463E-22
  700.1428   8.90518E-22
  700.3510   8.86165E-22
  700.5592   8.82339E-22
  700.7674   8.78058E-22
  700.9755   8.74316E-22
  701.1837   8.70504E-22
  701.3918   8.66650E-22
  701.5999   8.62394E-22
  701.8080   8.59098E-22
  702.0161   8.55344E-22
  702.2242   8.51917E-22
  702.4323   8.48539E-22
  702.6403   8.45156E-22
  702.8483   8.41903E-22
  703.0564   8.38635E-22
  703.2644   8.35185E-22
  703.4724   8.32624E-22
  703.6803   8.28993E-22
  703.8883   8.26007E-22
  704.0963   8.23005E-22
  704.3042   8.20300E-22
  704.5121   8.17015E-22
  704.7201   8.14394E-22
  704.9280   8.11607E-22
  705.1359   8.08896E-22
  705.3438   8.06186E-22
  705.5516   8.03760E-22
  705.7595   8.00896E-22
  705.9673   7.98166E-22
  706.1752   7.95463E-22
  706.3830   7.93047E-22
  706.5908   7.90122E-22
  706.7986   7.87679E-22
  707.0064   7.85511E-22
  707.2142   7.83172E-22
  707.4220   7.80614E-22
  707.6297   7.78272E-22
  707.8375   7.75883E-22
  708.0452   7.73539E-22
  708.2529   7.70737E-22
  708.4606   7.68639E-22
  708.6683   7.66382E-22
  708.8760   7.64152E-22
  709.0837   7.61501E-22
  709.2914   7.59560E-22
  709.4990   7.57248E-22
  709.7067   7.55201E-22
  709.9143   7.52970E-22
  710.1220   7.50716E-22
  710.3296   7.48437E-22
  710.5372   7.46520E-22
  710.7448   7.44369E-22
  710.9524   7.42425E-22
  711.1600   7.40195E-22
  711.3675   7.38512E-22
  711.5751   7.36718E-22
  711.7827   7.35044E-22
  711.9902   7.33019E-22
  712.1977   7.31625E-22
  712.4053   7.30154E-22
  712.6128   7.28823E-22
  712.8203   7.27241E-22
  713.0278   7.26607E-22
  713.2353   7.25937E-22
  713.4428   7.25001E-22
  713.6502   7.23933E-22
  713.8577   7.23487E-22
  714.0652   7.22609E-22
  714.2726   7.22054E-22
  714.4800   7.21408E-22
  714.6875   7.20617E-22
  714.8949   7.19506E-22
  715.1023   7.18681E-22
  715.3097   7.17822E-22
  715.5171   7.16733E-22
  715.7245   7.14975E-22
  715.9319   7.13554E-22
  716.1393   7.11753E-22
  716.3467   7.09771E-22
  716.5540   7.07217E-22
  716.7614   7.04630E-22
  716.9687   7.01565E-22
  717.1761   6.98826E-22
  717.3834   6.95563E-22
  717.5907   6.92537E-22
  717.7980   6.88990E-22
  718.0054   6.85414E-22
  718.2127   6.81464E-22
  718.4200   6.77305E-22
  718.6273   6.73017E-22
  718.8346   6.69053E-22
  719.0418   6.64799E-22
  719.2491   6.60818E-22
  719.4564   6.56155E-22
  719.6636   6.51776E-22
  719.8709   6.46972E-22
  720.0782   6.42926E-22
  720.2854   6.38164E-22
  720.4926   6.34040E-22
  720.6999   6.29420E-22
  720.9071   6.25152E-22
  721.1143   6.20935E-22
  721.3216   6.16985E-22
  721.5288   6.12459E-22
  721.7360   6.08574E-22
  721.9432   6.04489E-22
  722.1504   6.01224E-22
  722.3576   5.97267E-22
  722.5648   5.93964E-22
  722.7719   5.90564E-22
  722.9791   5.87653E-22
  723.1863   5.84420E-22
  723.3935   5.81502E-22
  723.6006   5.78334E-22
  723.8078   5.75293E-22
  724.0150   5.72816E-22
  724.2221   5.70301E-22
  724.4293   5.67234E-22
  724.6364   5.64799E-22
  724.8436   5.62629E-22
  725.0507   5.60205E-22
  725.2578   5.57377E-22
  725.4650   5.54693E-22
  725.6721   5.52267E-22
  725.8792   5.50027E-22
  726.0863   5.46875E-22
  726.2935   5.44242E-22
  726.5006   5.41235E-22
  726.7077   5.38660E-22
  726.9148   5.35446E-22
  727.1219   5.32721E-22
  727.3290   5.29429E-22
  727.5361   5.26610E-22
  727.7432   5.23531E-22
  727.9503   5.20637E-22
  728.1574   5.17129E-22
  728.3645   5.13871E-22
  728.5716   5.10592E-22
  728.7787   5.07937E-22
  728.9858   5.04908E-22
  729.1928   5.02145E-22
  729.3999   4.99222E-22
  729.6070   4.96888E-22
  729.8141   4.94127E-22
  730.0212   4.91733E-22
  730.2282   4.89314E-22
  730.4353   4.87108E-22
  730.6424   4.84887E-22
  730.8495   4.82543E-22
  731.0565   4.80016E-22
  731.2636   4.78588E-22
  731.4707   4.76317E-22
  731.6777   4.74183E-22
  731.8848   4.71911E-22
  732.0919   4.70272E-22
  732.2989   4.68251E-22
  732.5060   4.66816E-22
  732.7131   4.65148E-22
  732.9201   4.63899E-22
  733.1272   4.62577E-22
  733.3343   4.61699E-22
  733.5413   4.60318E-22
  733.7484   4.59387E-22
  733.9555   4.58025E-22
  734.1625   4.57178E-22
  734.3696   4.56288E-22
  734.5767   4.55905E-22
  734.7837   4.55418E-22
  734.9908   4.55314E-22
  735.1979   4.54584E-22
  735.4049   4.54219E-22
  735.6120   4.53595E-22
  735.8191   4.53291E-22
  736.0262   4.52804E-22
  736.2332   4.52327E-22
  736.4403   4.51786E-22
  736.6474   4.51594E-22
  736.8545   4.50921E-22
  737.0615   4.50571E-22
  737.2686   4.49708E-22
  737.4757   4.49175E-22
  737.6828   4.48039E-22
  737.8899   4.47637E-22
  738.0970   4.46848E-22
  738.3040   4.46291E-22
  738.5111   4.45633E-22
  738.7182   4.45527E-22
  738.9253   4.45254E-22
  739.1324   4.44282E-22
  739.3395   4.43617E-22
  739.5466   4.43607E-22
  739.7537   4.43308E-22
  739.9609   4.43402E-22
  740.1680   4.43139E-22
  740.3751   4.43200E-22
  740.5822   4.42635E-22
  740.7893   4.42524E-22
  740.9964   4.42628E-22
  741.2036   4.43294E-22
  741.4107   4.43882E-22
  741.6178   4.44519E-22
  741.8250   4.44919E-22
  742.0321   4.45435E-22
  742.2393   4.46139E-22
  742.4464   4.47036E-22
  742.6536   4.47750E-22
  742.8607   4.48772E-22
  743.0679   4.49667E-22
  743.2751   4.51126E-22
  743.4822   4.52085E-22
  743.6894   4.53646E-22
  743.8966   4.54567E-22
  744.1038   4.56149E-22
  744.3110   4.57128E-22
  744.5182   4.58365E-22
  744.7254   4.59358E-22
  744.9326   4.61034E-22
  745.1398   4.62220E-22
  745.3470   4.63525E-22
  745.5542   4.64569E-22
  745.7614   4.65948E-22
  745.9687   4.66758E-22
  746.1759   4.67648E-22
  746.3831   4.68321E-22
  746.5904   4.68688E-22
  746.7976   4.68536E-22
  747.0049   4.69170E-22
  747.2122   4.68878E-22
  747.4194   4.68921E-22
  747.6267   4.68263E-22
  747.8340   4.67800E-22
  748.0413   4.66703E-22
  748.2486   4.65526E-22
  748.4559   4.63850E-22
  748.6632   4.62555E-22
  748.8705   4.60730E-22
  749.0778   4.58673E-22
  749.2852   4.55601E-22
  749.4925   4.52961E-22
  749.6998   4.49932E-22
  749.9072   4.47130E-22
  750.1145   4.43660E-22
  750.3219   4.40108E-22
  750.5293   4.35992E-22
  750.7367   4.32513E-22
  750.9441   4.28442E-22
  751.1514   4.24630E-22
  751.3589   4.20294E-22
  751.5663   4.16279E-22
  751.7737   4.11519E-22
  751.9811   4.07473E-22
  752.1885   4.03562E-22
  752.3960   3.99313E-22
  752.6034   3.94645E-22
  752.8109   3.90437E-22
  753.0184   3.85962E-22
  753.2259   3.82118E-22
  753.4333   3.77561E-22
  753.6408   3.73883E-22
  753.8483   3.69716E-22
  754.0559   3.66042E-22
  754.2634   3.62193E-22
  754.4709   3.58974E-22
  754.6785   3.55367E-22
  754.8860   3.52364E-22
  755.0936   3.49095E-22
  755.3011   3.45726E-22
  755.5087   3.42483E-22
  755.7163   3.39794E-22
  755.9239   3.36857E-22
  756.1315   3.34142E-22
  756.3391   3.31325E-22
  756.5468   3.29032E-22
  756.7544   3.26356E-22
  756.9620   3.24116E-22
  757.1697   3.21543E-22
  757.3774   3.19546E-22
  757.5851   3.16920E-22
  757.7928   3.15056E-22
  758.0005   3.12491E-22
  758.2082   3.10913E-22
  758.4159   3.09180E-22
  758.6236   3.07386E-22
  758.8314   3.05510E-22
  759.0391   3.03870E-22
  759.2469   3.01823E-22
  759.4547   3.00521E-22
  759.6625   2.98623E-22
  759.8703   2.97246E-22
  760.0781   2.95681E-22
  760.2859   2.94736E-22
  760.4938   2.93277E-22
  760.7016   2.92255E-22
  760.9095   2.90762E-22
  761.1174   2.89894E-22
  761.3252   2.88136E-22
  761.5331   2.87338E-22
  761.7411   2.86241E-22
  761.9490   2.85744E-22
  762.1569   2.84724E-22
  762.3649   2.83810E-22
  762.5728   2.82515E-22
  762.7808   2.81505E-22
  762.9888   2.80034E-22
  763.1968   2.79122E-22
  763.4048   2.77598E-22
  763.6128   2.76660E-22
  763.8209   2.74435E-22
  764.0289   2.72040E-22
  764.2370   2.71695E-22
  764.4451   2.73538E-22
  764.6532   2.74596E-22
  764.8613   2.74707E-22
  765.0694   2.73755E-22
  765.2776   2.71826E-22
  765.4857   2.69790E-22
  765.6939   2.67541E-22
  765.9021   2.66178E-22
  766.1103   2.66236E-22
  766.3185   2.66716E-22
  766.5267   2.66993E-22
  766.7349   2.67131E-22
  766.9432   2.67596E-22
  767.1515   2.67577E-22
  767.3597   2.67579E-22
  767.5680   2.67635E-22
  767.7764   2.67801E-22
  767.9847   2.67427E-22
  768.1930   2.67615E-22
  768.4014   2.67227E-22
  768.6098   2.67285E-22
  768.8182   2.67326E-22
  769.0266   2.67603E-22
  769.2350   2.67374E-22
  769.4434   2.67832E-22
  769.6519   2.67888E-22
  769.8604   2.68512E-22
  770.0688   2.68397E-22
  770.2773   2.69373E-22
  770.4859   2.69590E-22
  770.6944   2.70133E-22
  770.9030   2.71097E-22
  771.1115   2.72033E-22
  771.3201   2.72614E-22
  771.5287   2.74071E-22
  771.7373   2.75062E-22
  771.9460   2.76306E-22
  772.1546   2.77386E-22
  772.3633   2.78970E-22
  772.5720   2.80099E-22
  772.7807   2.81953E-22
  772.9894   2.83395E-22
  773.1982   2.85332E-22
  773.4069   2.87256E-22
  773.6157   2.89371E-22
  773.8245   2.91046E-22
  774.0333   2.93342E-22
  774.2421   2.95141E-22
  774.4510   2.97685E-22
  774.6598   2.99537E-22
  774.8687   3.02551E-22
  775.0776   3.04745E-22
  775.2866   3.07352E-22
  775.4955   3.09279E-22
  775.7045   3.11811E-22
  775.9134   3.13896E-22
  776.1224   3.16713E-22
  776.3315   3.18449E-22
  776.5405   3.21142E-22
  776.7495   3.23262E-22
  776.9586   3.25743E-22
  777.1677   3.27467E-22
  777.3768   3.29223E-22
  777.5860   3.30525E-22
  777.7951   3.32341E-22
  778.0043   3.33537E-22
  778.2135   3.35063E-22
  778.4227   3.35601E-22
  778.6319   3.36522E-22
  778.8412   3.36879E-22
  779.0504   3.37650E-22
  779.2597   3.37257E-22
  779.4691   3.37154E-22
  779.6784   3.36281E-22
  779.8877   3.36341E-22
  780.0971   3.35121E-22
  780.3065   3.34629E-22
  780.5159   3.33368E-22
  780.7254   3.31989E-22
  780.9348   3.29891E-22
  781.1443   3.28367E-22
  781.3538   3.25965E-22
  781.4550   3.24861E-22
  781.7547   3.19958E-22
  782.0543   3.16023E-22
  782.3538   3.11762E-22
  782.6532   3.07364E-22
  782.9525   3.02353E-22
  783.2518   2.98396E-22
  783.5510   2.93998E-22
  783.8501   2.89255E-22
  784.1491   2.84883E-22
  784.4481   2.80617E-22
  784.7470   2.75920E-22
  785.0458   2.71821E-22
  785.3445   2.67193E-22
  785.6432   2.63106E-22
  785.9417   2.59716E-22
  786.2402   2.56125E-22
  786.5387   2.52571E-22
  786.8370   2.48219E-22
  787.1353   2.44949E-22
  787.4335   2.42048E-22
  787.7317   2.38426E-22
  788.0297   2.35437E-22
  788.3277   2.32291E-22
  788.6256   2.29325E-22
  788.9235   2.26491E-22
  789.2212   2.23386E-22
  789.5189   2.20609E-22
  789.8165   2.18507E-22
  790.1141   2.16391E-22
  790.4116   2.14004E-22
  790.7089   2.11958E-22
  791.0063   2.09405E-22
  791.3035   2.07081E-22
  791.6007   2.04997E-22
  791.8978   2.02404E-22
  792.1948   2.00288E-22
  792.4918   1.98200E-22
  792.7887   1.95840E-22
  793.0855   1.93541E-22
  793.3822   1.91040E-22
  793.6789   1.89041E-22
  793.9755   1.86987E-22
  794.2720   1.85271E-22
  794.5685   1.83767E-22
  794.8649   1.81771E-22
  795.1612   1.80001E-22
  795.4574   1.78436E-22
  795.7536   1.76985E-22
  796.0497   1.75875E-22
  796.3457   1.74309E-22
  796.6417   1.73040E-22
  796.9376   1.71617E-22
  797.2334   1.70925E-22
  797.5292   1.69664E-22
  797.8248   1.69097E-22
  798.1204   1.68149E-22
  798.4160   1.67383E-22
  798.7114   1.66652E-22
  799.0068   1.66027E-22
  799.3022   1.65168E-22
  799.5974   1.64274E-22
  799.8926   1.63569E-22
  800.1877   1.62823E-22
  800.4828   1.62312E-22
  800.7778   1.61590E-22
  801.0727   1.61015E-22
  801.3675   1.60563E-22
  801.6623   1.60119E-22
  801.9570   1.59899E-22
  802.2516   1.59624E-22
  802.5462   1.59588E-22
  802.8407   1.59115E-22
  803.1351   1.59047E-22
  803.4295   1.58935E-22
  803.7238   1.58985E-22
  804.0180   1.59083E-22
  804.3122   1.59119E-22
  804.6063   1.59469E-22
  804.9003   1.59845E-22
  805.1943   1.60274E-22
  805.4882   1.60820E-22
  805.7820   1.61714E-22
  806.0758   1.63005E-22
  806.3694   1.64071E-22
  806.6631   1.65507E-22
  806.9566   1.67032E-22
  807.2501   1.68747E-22
  807.5436   1.70765E-22
  807.8369   1.72924E-22
  808.1302   1.75116E-22
  808.4234   1.77267E-22
  808.7166   1.79685E-22
  809.0097   1.81879E-22
  809.3027   1.84249E-22
  809.5957   1.86495E-22
  809.8886   1.89223E-22
  810.1814   1.92062E-22
  810.4742   1.94815E-22
  810.7669   1.97206E-22
  811.0596   1.99822E-22
  811.3521   2.02638E-22
  811.6447   2.05261E-22
  811.9371   2.07628E-22
  812.2295   2.10345E-22
  812.5218   2.13072E-22
  812.8141   2.15219E-22
  813.1063   2.17614E-22
  813.3984   2.19904E-22
  813.6905   2.22376E-22
  813.9825   2.24363E-22
  814.2744   2.26726E-22
  814.5663   2.28424E-22
  814.8581   2.29841E-22
  815.1498   2.31388E-22
  815.4415   2.32661E-22
  815.7332   2.33480E-22
  816.0247   2.34130E-22
  816.3162   2.34800E-22
  816.6077   2.35031E-22
  816.8990   2.34934E-22
  817.1904   2.34261E-22
  817.4816   2.34104E-22
  817.7728   2.33079E-22
  818.0639   2.31539E-22
  818.3550   2.29843E-22
  818.6460   2.28556E-22
  818.9369   2.26488E-22
  819.2278   2.24282E-22
  819.5186   2.21421E-22
  819.8094   2.18816E-22
  820.1001   2.16095E-22
  820.3907   2.13171E-22
  820.6813   2.09690E-22
  820.9718   2.05983E-22
  821.2623   2.02185E-22
  821.5527   1.98736E-22
  821.8430   1.95126E-22
  822.1333   1.91184E-22
  822.4235   1.86742E-22
  822.7137   1.82120E-22
  823.0038   1.77556E-22
  823.2938   1.73564E-22
  823.5838   1.68274E-22
  823.8737   1.64721E-22
  824.1636   1.62831E-22
  824.4534   1.60347E-22
  824.7431   1.56792E-22
  825.0328   1.52831E-22
  825.3225   1.48804E-22
  825.6120   1.45279E-22
  825.9015   1.41895E-22
  826.1910   1.38270E-22
  826.4804   1.35095E-22
  826.7697   1.31820E-22
  827.0590   1.28884E-22
  827.3482   1.25841E-22
  827.6374   1.22920E-22
  827.9265   1.19924E-22
  828.2155   1.17484E-22
  828.5045   1.15536E-22
  828.7935   1.13506E-22
  829.0823   1.11688E-22
  829.3712   1.10020E-22
  829.6599   1.08077E-22
  829.9486   1.06052E-22
  830.2373   1.04354E-22
  830.5259   1.02576E-22
  830.8144   1.00688E-22
  831.1029   9.94574E-23
  831.3913   9.77326E-23
  831.6797   9.61508E-23
  831.9680   9.46647E-23
  832.2563   9.33944E-23
  832.5445   9.24732E-23
  832.8326   9.11851E-23
  833.1207   8.98220E-23
  833.4088   8.88379E-23
  833.6968   8.80265E-23
  833.9847   8.73142E-23
  834.2726   8.65339E-23
  834.5604   8.53451E-23
  834.8481   8.44338E-23
  835.1359   8.41481E-23
  835.4235   8.38910E-23
  835.7111   8.39238E-23
  835.9987   8.35163E-23
  836.2862   8.28045E-23
  836.5736   8.22537E-23
  836.8610   8.23085E-23
  837.1483   8.18038E-23
  837.4356   8.15569E-23
  837.7228   8.14746E-23
  838.0100   8.13422E-23
  838.2972   8.18310E-23
  838.5842   8.15964E-23
  838.8712   8.14758E-23
  839.1582   8.14505E-23
  839.4451   8.16779E-23
  839.7320   8.17864E-23
  840.0188   8.16714E-23
  840.3055   8.21341E-23
  840.5923   8.24744E-23
  840.8789   8.21703E-23
  841.1655   8.27353E-23
  841.4521   8.29405E-23
  841.7386   8.35633E-23
  842.0250   8.42932E-23
  842.3114   8.47201E-23
  842.5978   8.51377E-23
  842.8840   8.57579E-23
  843.1703   8.66728E-23
  843.4565   8.76375E-23
  843.7426   8.80805E-23
  844.0287   8.89332E-23
  844.3148   8.95758E-23
  844.6008   9.01711E-23
  844.8867   9.13558E-23
  845.1726   9.22856E-23
  845.4584   9.33782E-23
  845.7442   9.46550E-23
  846.0300   9.58421E-23
  846.3157   9.73022E-23
  846.6013   9.86188E-23
  846.8869   1.00099E-22
  847.1725   1.01607E-22
  847.4580   1.03493E-22
  847.7434   1.05339E-22
  848.0288   1.07313E-22
  848.3142   1.09687E-22
  848.5995   1.11851E-22
  848.8847   1.14369E-22
  849.1700   1.16863E-22
  849.4551   1.19838E-22
  849.7402   1.22578E-22
  850.0253   1.25459E-22
  850.3103   1.28483E-22
  850.5953   1.31479E-22
  850.8802   1.34767E-22
  851.1651   1.38155E-22
  851.4499   1.41247E-22
  851.7347   1.44391E-22
  852.0194   1.47403E-22
  852.3041   1.50066E-22
  852.5888   1.52356E-22
  852.8734   1.54408E-22
  853.1579   1.56175E-22
  853.4424   1.56848E-22
  853.7269   1.56801E-22
  854.0113   1.56658E-22
  854.2957   1.56419E-22
  854.5800   1.55622E-22
  854.8643   1.54693E-22
  855.1485   1.53820E-22
  855.4327   1.52706E-22
  855.7168   1.51160E-22
  856.0009   1.49558E-22
  856.2850   1.48058E-22
  856.5690   1.46277E-22
  856.8529   1.44652E-22
  857.1369   1.42908E-22
  857.4207   1.41177E-22
  857.7046   1.39323E-22
  857.9884   1.37497E-22
  858.2721   1.35422E-22
  858.5558   1.33655E-22
  858.8394   1.31387E-22
  859.1231   1.29708E-22
  859.4066   1.27549E-22
  859.6901   1.25114E-22
  859.9736   1.23033E-22
  860.2571   1.20801E-22
  860.5405   1.18185E-22
  860.8238   1.15713E-22
  861.1071   1.13362E-22
  861.3904   1.10746E-22
  861.6736   1.08212E-22
  861.9568   1.05673E-22
  862.2399   1.02981E-22
  862.5230   1.00259E-22
  862.8061   9.73818E-23
  863.0891   9.46377E-23
  863.3721   9.23001E-23
  863.6550   8.97752E-23
  863.9379   8.75908E-23
  864.2207   8.54666E-23
  864.5036   8.32687E-23
  864.7863   8.12533E-23
  865.0690   7.91882E-23
  865.3517   7.75044E-23
  865.6344   7.55423E-23
  865.9170   7.39447E-23
  866.1995   7.23125E-23
  866.4821   7.01727E-23
  866.7646   6.85993E-23
  867.0470   6.70256E-23
  867.3294   6.60068E-23
  867.6118   6.46514E-23
  867.8941   6.34110E-23
  868.1764   6.16319E-23
  868.4586   6.03069E-23
  868.7408   5.92037E-23
  869.0230   5.78449E-23
  869.3051   5.67408E-23
  869.5872   5.58881E-23
  869.8693   5.48173E-23
  870.1513   5.38491E-23
  870.4333   5.30276E-23
  870.7152   5.22140E-23
  870.9971   5.14457E-23
  871.2790   5.08193E-23
  871.5608   4.98311E-23
  871.8426   4.91111E-23
  872.1243   4.83035E-23
  872.4060   4.77918E-23
  872.6877   4.72893E-23
  872.9693   4.66230E-23
  873.2509   4.60086E-23
  873.5325   4.57902E-23
  873.8140   4.52734E-23
  874.0955   4.47031E-23
  874.3770   4.43255E-23
  874.6584   4.37936E-23
  874.9398   4.37210E-23
  875.2211   4.32684E-23
  875.5024   4.30706E-23
  875.7837   4.30299E-23
  876.0649   4.28577E-23
  876.3461   4.26074E-23
  876.6273   4.25206E-23
  876.9084   4.25257E-23
  877.1895   4.21797E-23
  877.4706   4.23704E-23
  877.7516   4.25071E-23
  878.0326   4.28707E-23
  878.3135   4.29383E-23
  878.5945   4.27304E-23
  878.8753   4.31604E-23
  879.1562   4.31893E-23
  879.4370   4.30111E-23
  879.7178   4.33224E-23
  879.9985   4.34630E-23
  880.2793   4.38408E-23
  880.5599   4.42537E-23
  880.8406   4.48447E-23
  881.1212   4.45835E-23
  881.4018   4.44596E-23
  881.6823   4.63301E-23
  881.9628   4.62985E-23
  882.2433   4.60626E-23
  882.5238   4.64634E-23
  882.8042   4.68786E-23
  883.0846   4.75946E-23
  883.3649   4.83884E-23
  883.6452   4.88130E-23
  883.9255   4.93751E-23
  884.2058   4.96119E-23
  884.4860   4.92859E-23
  884.7662   4.91156E-23
  885.0464   5.04209E-23
  885.3265   5.19731E-23
  885.6066   5.27768E-23
  885.8867   5.35332E-23
  886.1667   5.41216E-23
  886.4467   5.45494E-23
  886.7267   5.49463E-23
  887.0066   5.52684E-23
  887.2865   5.54997E-23
  887.5664   5.61838E-23
  887.8463   5.67082E-23
  888.1261   5.69752E-23
  888.4059   5.71293E-23
  888.6856   5.71358E-23
  888.9654   5.72522E-23
  889.2451   5.75703E-23
  889.5247   5.77827E-23
  889.8044   5.80993E-23
  890.0840   5.81541E-23
  890.3636   5.82033E-23
  890.6431   5.79409E-23
  890.9227   5.73458E-23
  891.2022   5.61927E-23
  891.4816   5.53902E-23
  891.7611   5.48983E-23
  892.0405   5.46473E-23
  892.3199   5.48742E-23
  892.5992   5.52588E-23
  892.8786   5.55199E-23
  893.1579   5.62725E-23
  893.4371   5.69291E-23
  893.7164   5.76728E-23
  893.9956   5.88845E-23
  894.2748   5.98599E-23
  894.5540   6.10197E-23
  894.8331   6.20925E-23
  895.1122   6.14412E-23
  895.3913   6.33896E-23
  895.6703   6.56545E-23
  895.9494   6.64083E-23
  896.2284   6.60543E-23
  896.5074   6.59801E-23
  896.7863   6.70671E-23
  897.0652   6.93405E-23
  897.3441   7.03904E-23
  897.6230   7.06229E-23
  897.9019   7.09665E-23
  898.1807   7.14109E-23
  898.4595   7.13393E-23
  898.7383   7.11022E-23
  899.0170   7.08570E-23
  899.2957   7.03815E-23
  899.5744   6.98949E-23
  899.8531   6.93239E-23
  900.1318   6.87391E-23
  900.4104   6.81028E-23
  900.6890   6.74655E-23
  900.9676   6.66208E-23
  901.2461   6.57674E-23
  901.5246   6.45752E-23
  901.8031   6.34699E-23
  902.0816   6.25784E-23
  902.3601   6.10349E-23
  902.6385   5.99054E-23
  902.9169   5.88290E-23
  903.1953   5.76298E-23
  903.4737   5.63217E-23
  903.7520   5.51471E-23
  904.0304   5.44609E-23
  904.3087   5.19888E-23
  904.5869   5.21117E-23
  904.8652   5.06596E-23
  905.1434   4.93980E-23
  905.4216   4.91964E-23
  905.6998   4.85123E-23
  905.9780   4.67716E-23
  906.2561   4.51152E-23
  906.5342   4.48505E-23
  906.8123   4.40521E-23
  907.0904   4.29973E-23
  907.3685   4.19214E-23
  907.6465   4.07820E-23
  907.9245   3.96994E-23
  908.2025   3.90165E-23
  908.4805   3.80418E-23
  908.7585   3.67843E-23
  909.0364   3.60681E-23
  909.3143   3.50009E-23
  909.5922   3.40493E-23
  909.8701   3.33626E-23
  910.1480   3.26320E-23
  910.4258   3.19389E-23
  910.7036   3.09563E-23
  910.9814   3.02597E-23
  911.2592   2.97769E-23
  911.5370   2.90743E-23
  911.8147   2.84408E-23
  912.0924   2.76766E-23
  912.3701   2.72366E-23
  912.6478   2.67960E-23
  912.9255   2.61262E-23
  913.2031   2.52467E-23
  913.4807   2.48829E-23
  913.7584   2.47645E-23
  914.0360   2.41698E-23
  914.3135   2.37148E-23
  914.5911   2.32896E-23
  914.8686   2.33581E-23
  915.1462   2.24819E-23
  915.4237   2.20164E-23
  915.7012   2.25281E-23
  915.9786   2.22175E-23
  916.2561   2.15131E-23
  916.5335   2.06444E-23
  916.8110   2.02732E-23
  917.0884   2.00909E-23
  917.3658   2.03342E-23
  917.6431   2.07420E-23
  917.9205   2.05121E-23
  918.1978   1.98887E-23
  918.4752   1.96799E-23
  918.7525   1.90693E-23
  919.0298   1.86508E-23
  919.3070   1.85779E-23
  919.5843   1.88121E-23
  919.8616   1.89228E-23
  920.1388   1.86989E-23
  920.4160   1.83094E-23
  920.6932   1.81918E-23
  920.9704   1.80142E-23
  921.2476   1.81076E-23
  921.5248   1.77151E-23
  921.8019   1.78987E-23
  922.0790   1.79748E-23
  922.3562   1.80090E-23
  922.6333   1.78743E-23
  922.9104   1.76187E-23
  923.1874   1.77564E-23
  923.4645   1.77081E-23
  923.7416   1.72534E-23
  924.0186   1.73186E-23
  924.2956   1.76518E-23
  924.5727   1.73735E-23
  924.8497   1.73036E-23
  925.1266   1.74762E-23
  925.4036   1.77679E-23
  925.6806   1.80241E-23
  925.9575   1.79816E-23
  926.2345   1.79821E-23
  926.5114   1.79852E-23
  926.7883   1.79864E-23
  927.0652   1.78662E-23
  927.3421   1.80735E-23
  927.6190   1.80027E-23
  927.8959   1.79116E-23
  928.1728   1.81316E-23
  928.4496   1.81175E-23
  928.7264   1.82127E-23
  929.0033   1.79989E-23
  929.2801   1.78399E-23
  929.5569   1.83333E-23
  929.8337   1.81155E-23
  930.1105   1.80297E-23
  930.3873   1.79302E-23
  930.6640   1.78392E-23
  930.9408   1.79671E-23
  931.2175   1.82845E-23
  931.4943   1.80091E-23
  931.7710   1.82705E-23
  932.0477   1.82005E-23
  932.3245   1.79156E-23
  932.6012   1.79463E-23
  932.8779   1.76756E-23
  933.1545   1.73110E-23
  933.4312   1.69104E-23
  933.7079   1.69466E-23
  933.9845   1.70782E-23
  934.2612   1.70806E-23
  934.5378   1.75915E-23
  934.8145   1.81013E-23
  935.0911   1.82466E-23
  935.3677   1.83043E-23
  935.6444   1.87449E-23
  935.9210   1.95121E-23
  936.1976   1.99382E-23
  936.4742   2.01053E-23
  936.7507   2.08717E-23
  937.0273   2.14800E-23
  937.3039   2.23084E-23
  937.5805   2.34430E-23
  937.8570   2.40820E-23
  938.1336   2.52041E-23
  938.4101   2.60975E-23
  938.6867   2.68732E-23
  938.9632   2.76964E-23
  939.2397   2.87765E-23
  939.5163   2.99349E-23
  939.7928   3.06937E-23
  940.0693   3.21328E-23
  940.3458   3.35762E-23
  940.6223   3.44904E-23
  940.8988   3.52893E-23
  941.1753   3.65904E-23
  941.4518   3.75634E-23
  941.7283   3.85021E-23
  942.0048   3.99236E-23
  942.2813   4.10497E-23
  942.5577   4.20748E-23
  942.8342   4.33658E-23
  943.1107   4.39170E-23
  943.3871   4.44577E-23
  943.6636   4.47178E-23
  943.9401   4.50354E-23
  944.2165   4.58345E-23
  944.4930   4.59597E-23
  944.7694   4.55088E-23
  945.0459   4.53713E-23
  945.3223   4.49508E-23
  945.5987   4.46576E-23
  945.8752   4.38710E-23
  946.1516   4.32773E-23
  946.4280   4.21941E-23
  946.7045   4.08385E-23
  946.9809   4.00097E-23
  947.2573   3.88093E-23
  947.5338   3.74602E-23
  947.8102   3.60334E-23
  948.0866   3.46630E-23
  948.3630   3.38145E-23
  948.6395   3.22389E-23
  948.9159   3.05958E-23
  949.1923   2.94422E-23
  949.4687   2.86279E-23
  949.7451   2.77029E-23
  950.0216   2.64367E-23
  950.2980   2.58896E-23
  950.5744   2.47693E-23
  950.8508   2.39996E-23
  951.1272   2.35731E-23
  951.4036   2.30361E-23
  951.6801   2.23629E-23
  951.9565   2.17154E-23
  952.2329   2.10158E-23
  952.5093   2.07464E-23
  952.7858   1.97129E-23
  953.0622   1.88415E-23
  953.3386   1.81896E-23
  953.6150   1.73047E-23
  953.8915   1.69143E-23
  954.1679   1.64548E-23
  954.4443   1.58605E-23
  954.7208   1.59890E-23
  954.9972   1.67304E-23
  955.2736   1.68450E-23
  955.5501   1.61458E-23
  955.8265   1.54268E-23
  956.1030   1.52541E-23
  956.3794   1.48111E-23
  956.6559   1.47119E-23
  956.9323   1.51162E-23
  957.2088   1.47964E-23
  957.4852   1.38437E-23
  957.7617   1.34998E-23
  958.0382   1.34272E-23
  958.3146   1.35346E-23
  958.5911   1.32147E-23
  958.8676   1.29252E-23
  959.1441   1.23258E-23
  959.4206   1.21200E-23
  959.6971   1.15074E-23
  959.9736   1.13658E-23
  960.2501   1.09458E-23
  960.5266   1.05809E-23
  960.8031   1.05333E-23
  961.0796   1.01593E-23
  961.3561   1.00126E-23
  961.6327   9.57691E-24
  961.9092   9.42060E-24
  962.1857   9.64040E-24
  962.4623   9.29268E-24
  962.7388   8.89148E-24
  963.0154   8.67304E-24
  963.2920   8.84540E-24
  963.5685   8.67077E-24
  963.8451   9.18745E-24
  964.1217   8.99944E-24
  964.3983   8.73901E-24
  964.6749   8.64943E-24
  964.9515   8.76045E-24
  965.2281   8.51628E-24
  965.5047   8.49062E-24
  965.7813   8.22200E-24
  966.0580   8.15055E-24
  966.3346   7.73992E-24
  966.6113   7.40349E-24
  966.8879   7.19146E-24
  967.1646   7.33870E-24
  967.4413   7.12028E-24
  967.7180   6.66835E-24
  967.9947   6.21750E-24
  968.2714   6.20438E-24
  968.5481   6.24547E-24
  968.8248   6.19838E-24
  969.1015   6.14810E-24
  969.3782   5.73820E-24
  969.6550   5.47753E-24
  969.9317   5.37657E-24
  970.2085   5.44015E-24
  970.4853   4.92094E-24
  970.7621   4.70595E-24
  971.0389   4.91183E-24
  971.3157   4.85818E-24
  971.5925   4.60790E-24
  971.8693   4.55497E-24
  972.1462   4.55042E-24
  972.4230   4.37273E-24
  972.6999   4.15409E-24
  972.9767   4.30817E-24
  973.2536   4.30164E-24
  973.5305   4.03543E-24
  973.8074   4.12853E-24
  974.0843   3.84240E-24
  974.3613   3.94442E-24
  974.6382   3.64342E-24
  974.9152   3.66495E-24
  975.1921   3.55899E-24
  975.4691   3.29136E-24
  975.7461   3.19139E-24
  976.0231   3.25654E-24
  976.3001   3.48067E-24
  976.5771   3.20272E-24
  976.8542   3.11634E-24
  977.1312   2.90029E-24
  977.4083   2.97241E-24
  977.6854   3.13636E-24
  977.9625   3.35430E-24
  978.2396   3.70232E-24
  978.5167   3.30884E-24
  978.7938   3.14354E-24
  979.0710   3.30626E-24
  979.3481   3.93975E-24
  979.6253   3.83989E-24
  979.9025   3.39712E-24
  980.1797   3.19886E-24
  980.4569   3.37595E-24
  980.7342   3.74033E-24
  981.0114   4.00015E-24
  981.2887   4.21541E-24
  981.5660   4.55379E-24
  981.8433   4.05510E-24
  982.1206   3.86261E-24
  982.3979   4.11855E-24
  982.6753   4.35240E-24
  982.9526   4.40441E-24
  983.2300   4.82842E-24
  983.5074   4.89767E-24
  983.7848   4.87768E-24
  984.0622   4.75743E-24
  984.3397   5.15588E-24
  984.6171   5.32701E-24
  984.8946   5.40799E-24
  985.1721   6.02372E-24
  985.4496   6.50271E-24
  985.7272   6.46888E-24
  986.0047   7.42288E-24
  986.2823   7.67580E-24
  986.5599   8.16762E-24
  986.8375   8.31020E-24
  987.1151   8.89129E-24
  987.3927   9.61503E-24
  987.6704   1.00867E-23
  987.9481   1.06652E-23
  988.2257   1.10531E-23
  988.5035   1.16212E-23
  988.7812   1.22192E-23
  989.0589   1.25929E-23
  989.3367   1.36574E-23
  989.6145   1.43189E-23
  989.8923   1.62038E-23
  990.1701   1.86052E-23
  990.4480   2.16230E-23
  990.7259   2.64391E-23
  991.0037   3.27593E-23
  991.2817   3.85108E-23
  991.5596   4.12617E-23
  991.8375   3.76635E-23
  992.1155   3.01608E-23
  992.3935   2.52561E-23
  992.6715   2.43869E-23
  992.9495   2.47932E-23
  993.2276   2.41527E-23
  993.5057   2.41192E-23
  993.7838   2.48190E-23
  994.0619   2.49280E-23
  994.3400   2.34856E-23
  994.6182   2.39333E-23
  994.8964   2.53926E-23
  995.1746   2.48226E-23
  995.4528   2.16014E-23
  995.7311   1.95029E-23
  996.0094   2.00977E-23
  996.2877   2.00017E-23
  996.5660   1.73384E-23
  996.8443   1.42251E-23
  997.1227   1.29351E-23
  997.4011   1.44268E-23
  997.6795   1.60587E-23
  997.9579   1.43680E-23
  998.2364   1.17234E-23
  998.5149   1.05720E-23
  998.7934   1.02858E-23
  999.0719   9.85571E-24
  999.3505   1.10688E-23
  999.6291   1.13451E-23
  999.9077   9.08695E-24
 1000.1863   7.22021E-24
 1000.4650   6.97661E-24
 1000.7436   7.19469E-24
 1001.0223   7.42753E-24
 1001.3011   7.89345E-24
 1001.5798   8.58780E-24
 1001.8586   7.46689E-24
 1002.1374   6.05355E-24
 1002.4163   5.05511E-24
 1002.6951   4.87930E-24
 1002.9740   5.14575E-24
 1003.2529   5.83043E-24
 1003.5319   6.55267E-24
 1003.8108   6.10559E-24
 1004.0898   5.62351E-24
 1004.3689   4.94159E-24
 1004.6479   4.03941E-24
 1004.9270   3.53548E-24
 1005.2061   3.46563E-24
 1005.4852   3.57108E-24
 1005.7644   4.15346E-24
 1006.0435   4.79384E-24
 1006.3228   4.72271E-24
 1006.6020   3.87975E-24
 1006.8813   3.61800E-24
 1007.1606   3.53151E-24
 1007.4399   3.12093E-24
 1007.7192   2.64613E-24
 1007.9986   2.52906E-24
 1008.2780   2.64389E-24
 1008.5575   3.10197E-24
 1008.8369   3.51711E-24
 1009.1164   3.62241E-24
 1009.3960   3.06600E-24
 1009.6755   2.60420E-24
 1009.9551   2.50917E-24
 1010.2347   2.88121E-24
 1010.5144   2.84215E-24
 1010.7941   2.26943E-24
 1011.0738   2.12103E-24
 1011.3535   2.18428E-24
 1011.6333   2.37513E-24
 1011.9131   2.57683E-24
 1012.1929   2.67251E-24
 1012.4728   2.88563E-24
 1012.7527   2.66853E-24
 1013.0326   2.04693E-24
 1013.3125   2.19785E-24
 1013.5925   2.49726E-24
 1013.8725   2.29975E-24
 1014.1526   2.11061E-24
 1014.4327   2.00160E-24
 1014.7128   1.94559E-24
 1014.9929   1.84332E-24
 1015.2731   1.82146E-24
 1015.5533   1.85769E-24
 1015.8336   2.05416E-24
 1016.1139   2.22411E-24
 1016.3942   2.17610E-24
 1016.6745   1.77789E-24
 1016.9549   1.89467E-24
 1017.2353   1.73817E-24
 1017.5157   1.53770E-24
 1017.7962   1.83126E-24
 1018.0767   1.69653E-24
 1018.3573   1.44663E-24
 1018.6378   1.25924E-24
 1018.9185   1.31668E-24
 1019.1991   1.26147E-24
 1019.4798   1.47831E-24
 1019.7605   1.97896E-24
 1020.0413   1.47340E-24
 1020.3220   1.19957E-24
 1020.6029   1.22215E-24
 1020.8837   1.30552E-24
 1021.1646   1.35988E-24
 1021.4455   1.28795E-24
 1021.7265   1.25102E-24
 1022.0075   1.28139E-24
 1022.2885   1.18508E-24
 1022.5696   9.99236E-25
 1022.8507   8.88931E-25
 1023.1319   1.02523E-24
 1023.4130   9.75612E-25
 1023.6943   8.66161E-25
 1023.9755   1.17442E-24
 1024.2568   1.10094E-24
 1024.5381   9.72764E-25
 1024.8195   9.05849E-25
 1025.1009   9.31771E-25
 1025.3823   1.04067E-24
 1025.6638   1.04037E-24
 1025.9453   1.17032E-24
 1026.2269   9.65583E-25
 1026.5085   1.16601E-24
 1026.7901   1.51224E-24
 1027.0718   1.41341E-24
 1027.3535   1.25279E-24
 1027.6352   1.31513E-24
 1027.9170   1.22720E-24
 1028.1988   1.19233E-24
 1028.4807   9.40336E-25
 1028.7626   8.98251E-25
 1029.0445   8.49928E-25
 1029.3265   8.39504E-25
 1029.6085   1.08785E-24
 1029.8906   7.46141E-25
 1030.1727   3.43770E-25
 1030.4548   4.01151E-25
 1030.7370   8.38831E-25
 1031.0192   1.25097E-24
 1031.3015   1.06020E-24
 1031.5838   1.09048E-24
 1031.8661   1.21588E-24
 1032.1485   1.19127E-24
 1032.4309   1.15548E-24
 1032.7134   1.31980E-24
 1032.9959   1.33474E-24
 1033.2785   1.30276E-24
 1033.5610   1.30603E-24
 1033.8437   1.62290E-24
 1034.1264   1.51451E-24
 1034.4091   1.45231E-24
 1034.6918   1.60570E-24
 1034.9746   1.46423E-24
 1035.2575   1.32310E-24
 1035.5404   1.15481E-24
 1035.8233   1.04154E-24
 1036.1063   1.26457E-24
 1036.3893   1.33771E-24
 1036.6723   1.36992E-24
 1036.9554   1.56860E-24
 1037.2386   1.53564E-24
 1037.5218   1.63348E-24
 1037.8050   1.78120E-24
 1038.0883   1.83682E-24
 1038.3716   2.00204E-24
 1038.6550   1.95922E-24
 1038.9384   1.84788E-24
 1039.2218   1.66107E-24
 1039.5053   1.86085E-24
 1039.7889   2.04131E-24
 1040.0725   1.75379E-24
 1040.3561   1.40909E-24
 1040.6398   1.45496E-24
 1040.9235   1.69895E-24
 1041.2073   1.95493E-24
 1041.4911   1.93103E-24
 1041.7749   2.26731E-24
 1042.0588   2.63996E-24
 1042.3428   2.57442E-24
 1042.6268   2.55380E-24
 1042.9108   2.72146E-24
 1043.1949   3.13906E-24
 1043.4791   3.03692E-24
 1043.7633   3.12922E-24
 1044.0475   3.18601E-24
 1044.3318   3.32830E-24
 1044.6161   3.69138E-24
 1044.9005   4.21623E-24
 1045.1849   4.99820E-24
 1045.4694   5.92917E-24
 1045.7539   6.78151E-24
 1046.0385   7.42536E-24
 1046.3231   7.91887E-24
 1046.6077   7.93449E-24
 1046.8924   6.68409E-24
 1047.1772   5.88852E-24
 1047.4620   5.46813E-24
 1047.7469   5.21542E-24
 1048.0318   5.34163E-24
 1048.3167   5.26777E-24
 1048.6017   5.20167E-24
 1048.8868   5.30268E-24
 1049.1719   5.29832E-24
 1049.4570   5.32156E-24
 1049.7422   5.32468E-24
 1050.0275   5.54278E-24
 1050.3128   5.38785E-24
 1050.5982   4.88099E-24
 1050.8836   4.28126E-24
 1051.1690   4.68538E-24
 1051.4545   4.74663E-24
 1051.7401   4.07693E-24
 1052.0257   3.08027E-24
 1052.3113   2.72795E-24
 1052.5971   3.28608E-24
 1052.8828   3.62080E-24
 1053.1686   3.78272E-24
 1053.4545   3.33737E-24
 1053.7404   2.84389E-24
 1054.0264   2.22263E-24
 1054.3124   2.42417E-24
 1054.5985   2.79696E-24
 1054.8846   2.68857E-24
 1055.1708   2.58363E-24
 1055.4570   2.24694E-24
 1055.7433   2.14529E-24
 1056.0296   2.04676E-24
 1056.0894   1.92046E-24
 1056.8790   2.10152E-24
 1057.6684   1.82393E-24
 1058.4577   1.82058E-24
 1059.2469   1.62297E-24
 1060.0359   1.92862E-24
 1060.8247   1.28250E-24
 1061.6134   1.66434E-24
 1062.4020   1.29204E-24
 1063.1905   1.66629E-24
 1063.9788   1.44082E-24
 1064.7669   1.73656E-24
 1065.5549   2.26068E-24
 1066.3428   1.45047E-24
 1067.1306   1.42698E-24
 1067.9182   1.37866E-24
 1068.7056   1.21242E-24
 1069.4930   1.27903E-24
 1070.2802   1.50359E-24
